ExperimentName	HCPID	RunNumber	Subject	Session	RandomSeed	Group	Laptop.RefreshRate	ScannerD2.RefreshRate	StudioVersion	RuntimeVersion	RuntimeVersionExpected	ExperimentVersion	triggercode	Allowed	RememberResp	KnowResp	NewResp	FontStyle	OldResp	StimuliDir	IntroButtonMap.OnsetDelay	IntroButtonMap.OnsetTime	IntroButtonMap.DurationError	IntroButtonMap.Duration	IntroButtonMap.StartTime	IntroButtonMap.FinishTime	IntroButtonMap.RESP	IntroButtonMap.OnsetToOnsetTime	GetReady.OnsetDelay	GetReady.OnsetTime	GetReady.DurationError	GetReady.Duration	GetReady.StartTime	GetReady.FinishTime	GetReady.RESP	GetReady.OnsetToOnsetTime	ACC_For_NewPlace	ACC_For_NewFace	Percent_Of_OldFace_Rated_As_Know	Percent_Of_OldFace_Rated_As_Remember	Percent_Of_OldPlace_Rated_As_Know	Percent_Of_OldPlace_Rated_As_Remember	Avg_RT_For_New_RESP_To_NewPlace	Avg_RT_For_New_RESP_To_NewFace	Avg_RT_For_Know_RESP_To_OldPlace	Avg_RT_For_Know_RESP_To_OldFace	Avg_RT_For_Remember_RESP_To_OldPlace	Avg_RT_For_Remember_RESP_To_OldFace	FeelFreeToRest.OnsetDelay	FeelFreeToRest.OnsetTime	FeelFreeToRest.DurationError	FeelFreeToRest.StartTime	FeelFreeToRest.OnsetToOnsetTime	ReadyList	Procedure	Stimulus	SyncSlideDur	ReadyList.Cycle	ReadyList.Sample	Running	SyncSlide.OnsetDelay	SyncSlide.OnsetTime	SyncSlide.DurationError	SyncSlide.Duration	SyncSlide.StartTime	SyncSlide.FinishTime	SyncSlide.RESP	SyncSlide.OnsetToOnsetTime	Run1	StimType	VFDuration	SessionSelectionList	RunNumberFilterValue	SessionSelectionList.Cycle	SessionSelectionList.Sample	PreStimFix.OnsetDelay	PreStimFix.OnsetTime	PreStimFix.DurationError	PreStimFix.Duration	PreStimFix.StartTime	PreStimFix.FinishTime	PreStimFix.OnsetToOnsetTime	Stim.OnsetDelay	Stim.OnsetTime	Stim.DurationError	Stim.Duration	Stim.StartTime	Stim.FinishTime	Stim.RTTime	Stim.ACC	Stim.RT	Stim.RESP	Stim.CRESP	Stim.OnsetToOnsetTime	Fix.OnsetDelay	Fix.OnsetTime	Fix.DurationError	Fix.Duration	Fix.StartTime	Fix.FinishTime	Fix.OnsetToOnsetTime	Block
REC090512	103111_fnca	2	1	1	-1143936076	1	75.031	75.030	2.0.10.147	2.0.10.242	2.0.10.242	1.0.0.195	7	123	1	2	3	Verdana	12	REC Stimuli\	39	6144	-999999	-1	6105	6604	{SPACE}	0	20	6624	-21	2000	6605	8503	""	1986	0.583333333333333	0.666666666666667	42.8571428571429	57.1428571428571	11.1111111111111	88.8888888888889	1142	1239.125	1928	1699	1070.375	908.75	12	208170	-999999	208160	0	1	InitialTR	3	2000	1	1	ReadyList	6	8610	-7	2000	8504	10503	""	0																																		1
REC090512	103111_fnca	2	1	1	-1143936076	1	75.031	75.030	2.0.10.147	2.0.10.242	2.0.10.242	1.0.0.195	7	123	1	2	3	Verdana	12	REC Stimuli\	39	6144	-999999	-1	6105	6604	{SPACE}	0	20	6624	-21	2000	6605	8503	""	1986	0.583333333333333	0.666666666666667	42.8571428571429	57.1428571428571	11.1111111111111	88.8888888888889	1142	1239.125	1928	1699	1070.375	908.75	12	208170	-999999	208160	0	2	InitialTR	2	2000	1	2	ReadyList	5	10609	-6	2000	10504	12503	""	0																																		2
REC090512	103111_fnca	2	1	1	-1143936076	1	75.031	75.030	2.0.10.147	2.0.10.242	2.0.10.242	1.0.0.195	7	123	1	2	3	Verdana	12	REC Stimuli\	39	6144	-999999	-1	6105	6604	{SPACE}	0	20	6624	-21	2000	6605	8503	""	1986	0.583333333333333	0.666666666666667	42.8571428571429	57.1428571428571	11.1111111111111	88.8888888888889	1142	1239.125	1928	1699	1070.375	908.75	12	208170	-999999	208160	0	3	InitialTR	1	2000	1	3	ReadyList	4	12608	-5	2000	12504	14503	""	0																																		3
REC090512	103111_fnca	2	1	1	-1143936076	1	75.031	75.030	2.0.10.147	2.0.10.242	2.0.10.242	1.0.0.195	7	123	1	2	3	Verdana	12	REC Stimuli\	39	6144	-999999	-1	6105	6604	{SPACE}	0	20	6624	-21	2000	6605	8503	""	1986	0.583333333333333	0.666666666666667	42.8571428571429	57.1428571428571	11.1111111111111	88.8888888888889	1142	1239.125	1928	1699	1070.375	908.75	12	208170	-999999	208160	0	4	InitialTR	+	1000	1	4	ReadyList	3	14607	-4	1000	14504	15503	""	0																																		4
REC090512	103111_fnca	2	1	1	-1143936076	1	75.031	75.030	2.0.10.147	2.0.10.242	2.0.10.242	1.0.0.195	7	123	1	2	3	Verdana	12	REC Stimuli\	39	6144	-999999	-1	6105	6604	{SPACE}	0	20	6624	-21	2000	6605	8503	""	1986	0.583333333333333	0.666666666666667	42.8571428571429	57.1428571428571	11.1111111111111	88.8888888888889	1142	1239.125	1928	1699	1070.375	908.75	12	208170	-999999	208160	0		RecMemTrialsPROC	FC_024_F12.png				SessionSelectionList										oldface	0	2	2	2	1	3	15607	2	1000	15504	15609	999	2	16606	-1	2000	15634	18605	17564	0	958	3	12	2013	13	18619	-14	1000	18605	19605	0	5
REC090512	103111_fnca	2	1	1	-1143936076	1	75.031	75.030	2.0.10.147	2.0.10.242	2.0.10.242	1.0.0.195	7	123	1	2	3	Verdana	12	REC Stimuli\	39	6144	-999999	-1	6105	6604	{SPACE}	0	20	6624	-21	2000	6605	8503	""	1986	0.583333333333333	0.666666666666667	42.8571428571429	57.1428571428571	11.1111111111111	88.8888888888889	1142	1239.125	1928	1699	1070.375	908.75	12	208170	-999999	208160	0		RecMemTrialsPROC	F64.bmp				SessionSelectionList										newface	2000	2	2	2	2	13	19619	2	1000	19607	19621	999	12	20618	-1	2000	19659	22617	21707	0	1089	1	3	2013	13	22631	-14	1000	22617	23617	0	6
REC090512	103111_fnca	2	1	1	-1143936076	1	75.031	75.030	2.0.10.147	2.0.10.242	2.0.10.242	1.0.0.195	7	123	1	2	3	Verdana	12	REC Stimuli\	39	6144	-999999	-1	6105	6604	{SPACE}	0	20	6624	-21	2000	6605	8503	""	1986	0.583333333333333	0.666666666666667	42.8571428571429	57.1428571428571	11.1111111111111	88.8888888888889	1142	1239.125	1928	1699	1070.375	908.75	12	208170	-999999	208160	0		RecMemTrialsPROC	FC_022_F11.png				SessionSelectionList										oldface	1000	2	2	2	3	12	23630	3	1000	23619	23633	1000	12	24630	-1	2000	23660	26629	26259	1	1629	2	12	2012	12	26642	-13	1000	26629	27629	0	7
REC090512	103111_fnca	2	1	1	-1143936076	1	75.031	75.030	2.0.10.147	2.0.10.242	2.0.10.242	1.0.0.195	7	123	1	2	3	Verdana	12	REC Stimuli\	39	6144	-999999	-1	6105	6604	{SPACE}	0	20	6624	-21	2000	6605	8503	""	1986	0.583333333333333	0.666666666666667	42.8571428571429	57.1428571428571	11.1111111111111	88.8888888888889	1142	1239.125	1928	1699	1070.375	908.75	12	208170	-999999	208160	0		RecMemTrialsPROC	p13.1.jpg				SessionSelectionList										newplace	2000	2	2	2	4	25	27655	3	1000	27631	27658	987	12	28642	-1	2000	27671	30641	29475	1	833	3	3	2012	12	30654	-13	1000	30641	31641	0	8
REC090512	103111_fnca	2	1	1	-1143936076	1	75.031	75.030	2.0.10.147	2.0.10.242	2.0.10.242	1.0.0.195	7	123	1	2	3	Verdana	12	REC Stimuli\	39	6144	-999999	-1	6105	6604	{SPACE}	0	20	6624	-21	2000	6605	8503	""	1986	0.583333333333333	0.666666666666667	42.8571428571429	57.1428571428571	11.1111111111111	88.8888888888889	1142	1239.125	1928	1699	1070.375	908.75	12	208170	-999999	208160	0		RecMemTrialsPROC	PL_026_SCENE_24.png				SessionSelectionList										oldplace	0	2	2	2	5	12	31654	2	1000	31643	31656	999	11	32653	-1	2000	31677	34652	33619	1	966	1	12	2013	13	34666	-14	1000	34652	35652	0	9
REC090512	103111_fnca	2	1	1	-1143936076	1	75.031	75.030	2.0.10.147	2.0.10.242	2.0.10.242	1.0.0.195	7	123	1	2	3	Verdana	12	REC Stimuli\	39	6144	-999999	-1	6105	6604	{SPACE}	0	20	6624	-21	2000	6605	8503	""	1986	0.583333333333333	0.666666666666667	42.8571428571429	57.1428571428571	11.1111111111111	88.8888888888889	1142	1239.125	1928	1699	1070.375	908.75	12	208170	-999999	208160	0		RecMemTrialsPROC	F79.bmp				SessionSelectionList										newface	3000	2	2	2	6	13	35666	2	1000	35654	35668	999	12	36665	-1	2000	35703	38664	37755	1	1090	3	3	2013	13	38678	-14	1000	38664	39664	0	10
REC090512	103111_fnca	2	1	1	-1143936076	1	75.031	75.030	2.0.10.147	2.0.10.242	2.0.10.242	1.0.0.195	7	123	1	2	3	Verdana	12	REC Stimuli\	39	6144	-999999	-1	6105	6604	{SPACE}	0	20	6624	-21	2000	6605	8503	""	1986	0.583333333333333	0.666666666666667	42.8571428571429	57.1428571428571	11.1111111111111	88.8888888888889	1142	1239.125	1928	1699	1070.375	908.75	12	208170	-999999	208160	0		RecMemTrialsPROC	PL_017_SCENE_03.png				SessionSelectionList										oldplace	4000	2	2	2	7	12	39677	3	1000	39666	39680	1000	12	40677	-1	2000	39716	42676	41995	1	1318	1	12	2012	12	42689	-13	1000	42676	43676	0	11
REC090512	103111_fnca	2	1	1	-1143936076	1	75.031	75.030	2.0.10.147	2.0.10.242	2.0.10.242	1.0.0.195	7	123	1	2	3	Verdana	12	REC Stimuli\	39	6144	-999999	-1	6105	6604	{SPACE}	0	20	6624	-21	2000	6605	8503	""	1986	0.583333333333333	0.666666666666667	42.8571428571429	57.1428571428571	11.1111111111111	88.8888888888889	1142	1239.125	1928	1699	1070.375	908.75	12	208170	-999999	208160	0		RecMemTrialsPROC	lexington14.jpg				SessionSelectionList										newplace	1000	2	2	2	8	12	43689	2	1000	43678	43691	1000	12	44689	-1	2000	43707	46688	46155	0	1466	2	3	2012	12	46701	-13	1000	46688	47688	0	12
REC090512	103111_fnca	2	1	1	-1143936076	1	75.031	75.030	2.0.10.147	2.0.10.242	2.0.10.242	1.0.0.195	7	123	1	2	3	Verdana	12	REC Stimuli\	39	6144	-999999	-1	6105	6604	{SPACE}	0	20	6624	-21	2000	6605	8503	""	1986	0.583333333333333	0.666666666666667	42.8571428571429	57.1428571428571	11.1111111111111	88.8888888888889	1142	1239.125	1928	1699	1070.375	908.75	12	208170	-999999	208160	0		RecMemTrialsPROC	PL_023_SCENE_09.png				SessionSelectionList										oldplace	1000	2	2	2	9	12	47701	2	1000	47690	47703	999	11	48700	-1	2000	47741	50699	49739	0	1039	3	12	2013	13	50713	-14	1000	50699	51699	0	13
REC090512	103111_fnca	2	1	1	-1143936076	1	75.031	75.030	2.0.10.147	2.0.10.242	2.0.10.242	1.0.0.195	7	123	1	2	3	Verdana	12	REC Stimuli\	39	6144	-999999	-1	6105	6604	{SPACE}	0	20	6624	-21	2000	6605	8503	""	1986	0.583333333333333	0.666666666666667	42.8571428571429	57.1428571428571	11.1111111111111	88.8888888888889	1142	1239.125	1928	1699	1070.375	908.75	12	208170	-999999	208160	0		RecMemTrialsPROC	F96.bmp				SessionSelectionList										newface	4000	2	2	2	10	12	51712	3	1000	51701	51715	1000	12	52712	-1	2000	51718	54711	54235	1	1523	3	3	2013	13	54725	-14	1000	54711	55711	0	14
REC090512	103111_fnca	2	1	1	-1143936076	1	75.031	75.030	2.0.10.147	2.0.10.242	2.0.10.242	1.0.0.195	7	123	1	2	3	Verdana	12	REC Stimuli\	39	6144	-999999	-1	6105	6604	{SPACE}	0	20	6624	-21	2000	6605	8503	""	1986	0.583333333333333	0.666666666666667	42.8571428571429	57.1428571428571	11.1111111111111	88.8888888888889	1142	1239.125	1928	1699	1070.375	908.75	12	208170	-999999	208160	0		RecMemTrialsPROC	M62.bmp				SessionSelectionList										newface	0	2	2	2	11	12	55724	3	1000	55713	55727	1000	12	56724	-1	2000	55730	58723	57899	1	1175	3	3	2012	12	58736	-13	1000	58723	59723	0	15
REC090512	103111_fnca	2	1	1	-1143936076	1	75.031	75.030	2.0.10.147	2.0.10.242	2.0.10.242	1.0.0.195	7	123	1	2	3	Verdana	12	REC Stimuli\	39	6144	-999999	-1	6105	6604	{SPACE}	0	20	6624	-21	2000	6605	8503	""	1986	0.583333333333333	0.666666666666667	42.8571428571429	57.1428571428571	11.1111111111111	88.8888888888889	1142	1239.125	1928	1699	1070.375	908.75	12	208170	-999999	208160	0		RecMemTrialsPROC	92027.jpg				SessionSelectionList										newplace	3000	2	2	2	12	12	59736	2	1000	59725	59738	1000	12	60736	-1	2000	59743	62735	61531	0	795	1	3	2012	12	62748	-13	1000	62735	63735	0	16
REC090512	103111_fnca	2	1	1	-1143936076	1	75.031	75.030	2.0.10.147	2.0.10.242	2.0.10.242	1.0.0.195	7	123	1	2	3	Verdana	12	REC Stimuli\	39	6144	-999999	-1	6105	6604	{SPACE}	0	20	6624	-21	2000	6605	8503	""	1986	0.583333333333333	0.666666666666667	42.8571428571429	57.1428571428571	11.1111111111111	88.8888888888889	1142	1239.125	1928	1699	1070.375	908.75	12	208170	-999999	208160	0		RecMemTrialsPROC	FC_014_F7.png				SessionSelectionList										oldface	2000	2	2	2	13	12	63748	2	1000	63737	63750	999	11	64747	-1	2000	63760	66746	66011	1	1264	2	12	2013	13	66760	-14	1000	66746	67746	0	17
REC090512	103111_fnca	2	1	1	-1143936076	1	75.031	75.030	2.0.10.147	2.0.10.242	2.0.10.242	1.0.0.195	7	123	1	2	3	Verdana	12	REC Stimuli\	39	6144	-999999	-1	6105	6604	{SPACE}	0	20	6624	-21	2000	6605	8503	""	1986	0.583333333333333	0.666666666666667	42.8571428571429	57.1428571428571	11.1111111111111	88.8888888888889	1142	1239.125	1928	1699	1070.375	908.75	12	208170	-999999	208160	0		RecMemTrialsPROC	FC_020_F10.png				SessionSelectionList										oldface	3000	2	2	2	14	12	67759	2	1000	67748	67761	1000	12	68759	-1	2000	67771	70758	69851	1	1092	1	12	2013	13	70772	-14	1000	70758	71758	0	18
REC090512	103111_fnca	2	1	1	-1143936076	1	75.031	75.030	2.0.10.147	2.0.10.242	2.0.10.242	1.0.0.195	7	123	1	2	3	Verdana	12	REC Stimuli\	39	6144	-999999	-1	6105	6604	{SPACE}	0	20	6624	-21	2000	6605	8503	""	1986	0.583333333333333	0.666666666666667	42.8571428571429	57.1428571428571	11.1111111111111	88.8888888888889	1142	1239.125	1928	1699	1070.375	908.75	12	208170	-999999	208160	0		RecMemTrialsPROC	PL_020_SCENE_06.png				SessionSelectionList										oldplace	2000	2	2	2	15	12	71771	2	1000	71760	71774	1000	12	72771	-1	2000	71783	74770	74699	1	1928	2	12	2012	12	74783	-13	1000	74770	75770	0	19
REC090512	103111_fnca	2	1	1	-1143936076	1	75.031	75.030	2.0.10.147	2.0.10.242	2.0.10.242	1.0.0.195	7	123	1	2	3	Verdana	12	REC Stimuli\	39	6144	-999999	-1	6105	6604	{SPACE}	0	20	6624	-21	2000	6605	8503	""	1986	0.583333333333333	0.666666666666667	42.8571428571429	57.1428571428571	11.1111111111111	88.8888888888889	1142	1239.125	1928	1699	1070.375	908.75	12	208170	-999999	208160	0		RecMemTrialsPROC	92045.jpg				SessionSelectionList										newplace	4000	2	2	2	16	12	75783	2	1000	75772	75785	1000	12	76783	-1	2000	75790	78782	77923	1	1140	3	3	2012	12	78795	-13	1000	78782	79782	0	20
REC090512	103111_fnca	2	1	1	-1143936076	1	75.031	75.030	2.0.10.147	2.0.10.242	2.0.10.242	1.0.0.195	7	123	1	2	3	Verdana	12	REC Stimuli\	39	6144	-999999	-1	6105	6604	{SPACE}	0	20	6624	-21	2000	6605	8503	""	1986	0.583333333333333	0.666666666666667	42.8571428571429	57.1428571428571	11.1111111111111	88.8888888888889	1142	1239.125	1928	1699	1070.375	908.75	12	208170	-999999	208160	0		RecMemTrialsPROC	Scene_11.jpg				SessionSelectionList										newplace	0	2	2	2	17	12	79795	2	1000	79784	79797	999	11	80794	-1	2000	79805	82793	82346	1	1552	3	3	2013	13	82807	-14	1000	82793	83793	0	21
REC090512	103111_fnca	2	1	1	-1143936076	1	75.031	75.030	2.0.10.147	2.0.10.242	2.0.10.242	1.0.0.195	7	123	1	2	3	Verdana	12	REC Stimuli\	39	6144	-999999	-1	6105	6604	{SPACE}	0	20	6624	-21	2000	6605	8503	""	1986	0.583333333333333	0.666666666666667	42.8571428571429	57.1428571428571	11.1111111111111	88.8888888888889	1142	1239.125	1928	1699	1070.375	908.75	12	208170	-999999	208160	0		RecMemTrialsPROC	f108.bmp				SessionSelectionList										newface	1000	2	2	2	18	12	83806	3	1000	83795	83809	1000	12	84806	-1	2000	83812	86805	86099	1	1293	3	3	2013	13	86819	-14	1000	86805	87805	0	22
REC090512	103111_fnca	2	1	1	-1143936076	1	75.031	75.030	2.0.10.147	2.0.10.242	2.0.10.242	1.0.0.195	7	123	1	2	3	Verdana	12	REC Stimuli\	39	6144	-999999	-1	6105	6604	{SPACE}	0	20	6624	-21	2000	6605	8503	""	1986	0.583333333333333	0.666666666666667	42.8571428571429	57.1428571428571	11.1111111111111	88.8888888888889	1142	1239.125	1928	1699	1070.375	908.75	12	208170	-999999	208160	0		RecMemTrialsPROC	PL_022_SCENE_08.png				SessionSelectionList										oldplace	4000	2	2	2	19	12	87818	3	1000	87807	87821	1000	12	88818	-1	2000	87830	90817	89826	1	1008	1	12	2012	12	90830	-13	1000	90817	91817	0	23
REC090512	103111_fnca	2	1	1	-1143936076	1	75.031	75.030	2.0.10.147	2.0.10.242	2.0.10.242	1.0.0.195	7	123	1	2	3	Verdana	12	REC Stimuli\	39	6144	-999999	-1	6105	6604	{SPACE}	0	20	6624	-21	2000	6605	8503	""	1986	0.583333333333333	0.666666666666667	42.8571428571429	57.1428571428571	11.1111111111111	88.8888888888889	1142	1239.125	1928	1699	1070.375	908.75	12	208170	-999999	208160	0		RecMemTrialsPROC	PL_015_SCENE_01.png				SessionSelectionList										oldplace	3000	2	2	2	20	12	91830	2	1000	91819	91832	999	11	92829	-1	2000	91842	94828	93794	1	965	1	12	2013	13	94842	-14	1000	94828	95828	0	24
REC090512	103111_fnca	2	1	1	-1143936076	1	75.031	75.030	2.0.10.147	2.0.10.242	2.0.10.242	1.0.0.195	7	123	1	2	3	Verdana	12	REC Stimuli\	39	6144	-999999	-1	6105	6604	{SPACE}	0	20	6624	-21	2000	6605	8503	""	1986	0.583333333333333	0.666666666666667	42.8571428571429	57.1428571428571	11.1111111111111	88.8888888888889	1142	1239.125	1928	1699	1070.375	908.75	12	208170	-999999	208160	0		RecMemTrialsPROC	M78.bmp				SessionSelectionList										newface	2000	2	2	2	21	13	95842	1	1000	95830	95843	999	12	96841	-1	2000	95846	98840	98226	1	1385	3	3	2013	13	98854	-14	1000	98840	99840	0	25
REC090512	103111_fnca	2	1	1	-1143936076	1	75.031	75.030	2.0.10.147	2.0.10.242	2.0.10.242	1.0.0.195	7	123	1	2	3	Verdana	12	REC Stimuli\	39	6144	-999999	-1	6105	6604	{SPACE}	0	20	6624	-21	2000	6605	8503	""	1986	0.583333333333333	0.666666666666667	42.8571428571429	57.1428571428571	11.1111111111111	88.8888888888889	1142	1239.125	1928	1699	1070.375	908.75	12	208170	-999999	208160	0		RecMemTrialsPROC	FC_019_M10.png				SessionSelectionList										oldface	4000	2	2	2	22	12	99853	2	1000	99842	99855	1000	12	100853	-1	2000	99864	102852	102050	0	1197	3	12	2012	12	102865	-13	1000	102852	103852	0	26
REC090512	103111_fnca	2	1	1	-1143936076	1	75.031	75.030	2.0.10.147	2.0.10.242	2.0.10.242	1.0.0.195	7	123	1	2	3	Verdana	12	REC Stimuli\	39	6144	-999999	-1	6105	6604	{SPACE}	0	20	6624	-21	2000	6605	8503	""	1986	0.583333333333333	0.666666666666667	42.8571428571429	57.1428571428571	11.1111111111111	88.8888888888889	1142	1239.125	1928	1699	1070.375	908.75	12	208170	-999999	208160	0		RecMemTrialsPROC	p48.1.jpg				SessionSelectionList										newplace	1000	2	2	2	23	12	103865	1	1000	103854	103866	1000	12	104865	-1	2000	103872	106864	106530	1	1665	3	3	2012	12	106877	-13	1000	106864	107864	0	27
REC090512	103111_fnca	2	1	1	-1143936076	1	75.031	75.030	2.0.10.147	2.0.10.242	2.0.10.242	1.0.0.195	7	123	1	2	3	Verdana	12	REC Stimuli\	39	6144	-999999	-1	6105	6604	{SPACE}	0	20	6624	-21	2000	6605	8503	""	1986	0.583333333333333	0.666666666666667	42.8571428571429	57.1428571428571	11.1111111111111	88.8888888888889	1142	1239.125	1928	1699	1070.375	908.75	12	208170	-999999	208160	0		RecMemTrialsPROC	FC_018_F9.png				SessionSelectionList										oldface	0	2	2	2	24	12	107877	1	1000	107866	107878	999	11	108876	-1	2000	107889	110875	110010	0	1134	3	12	2013	13	110889	-14	1000	110875	111875	0	28
REC090512	103111_fnca	2	1	1	-1143936076	1	75.031	75.030	2.0.10.147	2.0.10.242	2.0.10.242	1.0.0.195	7	123	1	2	3	Verdana	12	REC Stimuli\	39	6144	-999999	-1	6105	6604	{SPACE}	0	20	6624	-21	2000	6605	8503	""	1986	0.583333333333333	0.666666666666667	42.8571428571429	57.1428571428571	11.1111111111111	88.8888888888889	1142	1239.125	1928	1699	1070.375	908.75	12	208170	-999999	208160	0		RecMemTrialsPROC	f106.bmp				SessionSelectionList										newface	3000	2	2	2	25	13	111889	1	1000	111877	111890	999	12	112888	-1	2000	111893	114887	114458	1	1570	3	3	2013	13	114901	-14	1000	114887	115887	0	29
REC090512	103111_fnca	2	1	1	-1143936076	1	75.031	75.030	2.0.10.147	2.0.10.242	2.0.10.242	1.0.0.195	7	123	1	2	3	Verdana	12	REC Stimuli\	39	6144	-999999	-1	6105	6604	{SPACE}	0	20	6624	-21	2000	6605	8503	""	1986	0.583333333333333	0.666666666666667	42.8571428571429	57.1428571428571	11.1111111111111	88.8888888888889	1142	1239.125	1928	1699	1070.375	908.75	12	208170	-999999	208160	0		RecMemTrialsPROC	M91.bmp				SessionSelectionList										newface	4000	2	2	2	26	12	115900	3	1000	115889	115903	1000	12	116900	-1	2000	115906	118899	118298	0	1398	2	3	2012	12	118912	-13	1000	118899	119899	0	30
REC090512	103111_fnca	2	1	1	-1143936076	1	75.031	75.030	2.0.10.147	2.0.10.242	2.0.10.242	1.0.0.195	7	123	1	2	3	Verdana	12	REC Stimuli\	39	6144	-999999	-1	6105	6604	{SPACE}	0	20	6624	-21	2000	6605	8503	""	1986	0.583333333333333	0.666666666666667	42.8571428571429	57.1428571428571	11.1111111111111	88.8888888888889	1142	1239.125	1928	1699	1070.375	908.75	12	208170	-999999	208160	0		RecMemTrialsPROC	Scene_37.jpg				SessionSelectionList										newplace	2000	2	2	2	27	12	119912	2	1000	119901	119914	1000	12	120912	-1	2000	119922	122911	121802	1	890	3	3	2012	12	122924	-13	1000	122911	123911	0	31
REC090512	103111_fnca	2	1	1	-1143936076	1	75.031	75.030	2.0.10.147	2.0.10.242	2.0.10.242	1.0.0.195	7	123	1	2	3	Verdana	12	REC Stimuli\	39	6144	-999999	-1	6105	6604	{SPACE}	0	20	6624	-21	2000	6605	8503	""	1986	0.583333333333333	0.666666666666667	42.8571428571429	57.1428571428571	11.1111111111111	88.8888888888889	1142	1239.125	1928	1699	1070.375	908.75	12	208170	-999999	208160	0		RecMemTrialsPROC	p26.1.jpg				SessionSelectionList										newplace	3000	2	2	2	28	12	123924	2	1000	123913	123926	999	11	124923	-1	2000	123932	126922	126266	0	1343	1	3	2013	13	126936	-14	1000	126922	127922	0	32
REC090512	103111_fnca	2	1	1	-1143936076	1	75.031	75.030	2.0.10.147	2.0.10.242	2.0.10.242	1.0.0.195	7	123	1	2	3	Verdana	12	REC Stimuli\	39	6144	-999999	-1	6105	6604	{SPACE}	0	20	6624	-21	2000	6605	8503	""	1986	0.583333333333333	0.666666666666667	42.8571428571429	57.1428571428571	11.1111111111111	88.8888888888889	1142	1239.125	1928	1699	1070.375	908.75	12	208170	-999999	208160	0		RecMemTrialsPROC	FC_016_F8.png				SessionSelectionList										oldface	2000	2	2	2	29	13	127936	2	1000	127924	127938	999	12	128935	-1	2000	127948	130934	129890	0	955	3	12	2013	13	130948	-14	1000	130934	131934	0	33
REC090512	103111_fnca	2	1	1	-1143936076	1	75.031	75.030	2.0.10.147	2.0.10.242	2.0.10.242	1.0.0.195	7	123	1	2	3	Verdana	12	REC Stimuli\	39	6144	-999999	-1	6105	6604	{SPACE}	0	20	6624	-21	2000	6605	8503	""	1986	0.583333333333333	0.666666666666667	42.8571428571429	57.1428571428571	11.1111111111111	88.8888888888889	1142	1239.125	1928	1699	1070.375	908.75	12	208170	-999999	208160	0		RecMemTrialsPROC	PL_021_SCENE_07.png				SessionSelectionList										oldplace	1000	2	2	2	30	12	131947	3	1000	131936	131950	1000	12	132947	-1	2000	131959	134946	134002	1	1055	1	12	2012	12	134959	-13	1000	134946	135946	0	34
REC090512	103111_fnca	2	1	1	-1143936076	1	75.031	75.030	2.0.10.147	2.0.10.242	2.0.10.242	1.0.0.195	7	123	1	2	3	Verdana	12	REC Stimuli\	39	6144	-999999	-1	6105	6604	{SPACE}	0	20	6624	-21	2000	6605	8503	""	1986	0.583333333333333	0.666666666666667	42.8571428571429	57.1428571428571	11.1111111111111	88.8888888888889	1142	1239.125	1928	1699	1070.375	908.75	12	208170	-999999	208160	0		RecMemTrialsPROC	FC_017_M9.png				SessionSelectionList										oldface	1000	2	2	2	31	12	135959	2	1000	135948	135961	1000	12	136959	-1	2000	135971	138958	138762	0	1803	3	12	2012	12	138971	-13	1000	138958	139958	0	35
REC090512	103111_fnca	2	1	1	-1143936076	1	75.031	75.030	2.0.10.147	2.0.10.242	2.0.10.242	1.0.0.195	7	123	1	2	3	Verdana	12	REC Stimuli\	39	6144	-999999	-1	6105	6604	{SPACE}	0	20	6624	-21	2000	6605	8503	""	1986	0.583333333333333	0.666666666666667	42.8571428571429	57.1428571428571	11.1111111111111	88.8888888888889	1142	1239.125	1928	1699	1070.375	908.75	12	208170	-999999	208160	0		RecMemTrialsPROC	PL_024_SCENE_10.png				SessionSelectionList										oldplace	0	2	2	2	32	12	139971	2	1000	139960	139973	999	11	140970	-1	2000	139981	142969	142538	0	1568	3	12	2013	13	142983	-14	1000	142969	143969	0	36
REC090512	103111_fnca	2	1	1	-1143936076	1	75.031	75.030	2.0.10.147	2.0.10.242	2.0.10.242	1.0.0.195	7	123	1	2	3	Verdana	12	REC Stimuli\	39	6144	-999999	-1	6105	6604	{SPACE}	0	20	6624	-21	2000	6605	8503	""	1986	0.583333333333333	0.666666666666667	42.8571428571429	57.1428571428571	11.1111111111111	88.8888888888889	1142	1239.125	1928	1699	1070.375	908.75	12	208170	-999999	208160	0		RecMemTrialsPROC	FC_015_M8.png				SessionSelectionList										oldface	3000	2	2	2	33	12	143982	3	1000	143971	143985	1000	12	144982	-1	2000	143995	146981	147186	1	2204	2	12	2013	13	146995	-14	1000	146981	147981	0	37
REC090512	103111_fnca	2	1	1	-1143936076	1	75.031	75.030	2.0.10.147	2.0.10.242	2.0.10.242	1.0.0.195	7	123	1	2	3	Verdana	12	REC Stimuli\	39	6144	-999999	-1	6105	6604	{SPACE}	0	20	6624	-21	2000	6605	8503	""	1986	0.583333333333333	0.666666666666667	42.8571428571429	57.1428571428571	11.1111111111111	88.8888888888889	1142	1239.125	1928	1699	1070.375	908.75	12	208170	-999999	208160	0		RecMemTrialsPROC	PL_025_SCENE_18.png				SessionSelectionList										oldplace	2000	2	2	2	34	12	147994	3	1000	147983	147997	1000	12	148994	-1	2000	148006	150993	150209	1	1215	1	12	2012	12	151006	-13	1000	150993	151993	0	38
REC090512	103111_fnca	2	1	1	-1143936076	1	75.031	75.030	2.0.10.147	2.0.10.242	2.0.10.242	1.0.0.195	7	123	1	2	3	Verdana	12	REC Stimuli\	39	6144	-999999	-1	6105	6604	{SPACE}	0	20	6624	-21	2000	6605	8503	""	1986	0.583333333333333	0.666666666666667	42.8571428571429	57.1428571428571	11.1111111111111	88.8888888888889	1142	1239.125	1928	1699	1070.375	908.75	12	208170	-999999	208160	0		RecMemTrialsPROC	PL_018_SCENE_04.png				SessionSelectionList										oldplace	3000	2	2	2	35	12	152006	2	1000	151995	152008	1000	12	153006	-1	2000	152018	155005	153881	1	875	1	12	2012	12	155018	-13	1000	155005	156005	0	39
REC090512	103111_fnca	2	1	1	-1143936076	1	75.031	75.030	2.0.10.147	2.0.10.242	2.0.10.242	1.0.0.195	7	123	1	2	3	Verdana	12	REC Stimuli\	39	6144	-999999	-1	6105	6604	{SPACE}	0	20	6624	-21	2000	6605	8503	""	1986	0.583333333333333	0.666666666666667	42.8571428571429	57.1428571428571	11.1111111111111	88.8888888888889	1142	1239.125	1928	1699	1070.375	908.75	12	208170	-999999	208160	0		RecMemTrialsPROC	F82.bmp				SessionSelectionList										newface	1000	2	2	2	36	12	156018	2	1000	156007	156020	999	11	157017	-1	2000	156023	159016	158121	1	1104	3	3	2013	13	159030	-14	1000	159016	160016	0	40
REC090512	103111_fnca	2	1	1	-1143936076	1	75.031	75.030	2.0.10.147	2.0.10.242	2.0.10.242	1.0.0.195	7	123	1	2	3	Verdana	12	REC Stimuli\	39	6144	-999999	-1	6105	6604	{SPACE}	0	20	6624	-21	2000	6605	8503	""	1986	0.583333333333333	0.666666666666667	42.8571428571429	57.1428571428571	11.1111111111111	88.8888888888889	1142	1239.125	1928	1699	1070.375	908.75	12	208170	-999999	208160	0		RecMemTrialsPROC	F67.bmp				SessionSelectionList										newface	0	2	2	2	37	12	160029	3	1000	160018	160032	1000	12	161029	-1	2000	160035	163028	162129	0	1100	1	3	2013	13	163042	-14	1000	163028	164028	0	41
REC090512	103111_fnca	2	1	1	-1143936076	1	75.031	75.030	2.0.10.147	2.0.10.242	2.0.10.242	1.0.0.195	7	123	1	2	3	Verdana	12	REC Stimuli\	39	6144	-999999	-1	6105	6604	{SPACE}	0	20	6624	-21	2000	6605	8503	""	1986	0.583333333333333	0.666666666666667	42.8571428571429	57.1428571428571	11.1111111111111	88.8888888888889	1142	1239.125	1928	1699	1070.375	908.75	12	208170	-999999	208160	0		RecMemTrialsPROC	scene14.jpg				SessionSelectionList										newplace	0	2	2	2	38	12	164041	2	1000	164030	164043	1000	12	165041	-1	2000	164048	167040	165977	1	936	3	3	2012	12	167053	-13	1000	167040	168040	0	42
REC090512	103111_fnca	2	1	1	-1143936076	1	75.031	75.030	2.0.10.147	2.0.10.242	2.0.10.242	1.0.0.195	7	123	1	2	3	Verdana	12	REC Stimuli\	39	6144	-999999	-1	6105	6604	{SPACE}	0	20	6624	-21	2000	6605	8503	""	1986	0.583333333333333	0.666666666666667	42.8571428571429	57.1428571428571	11.1111111111111	88.8888888888889	1142	1239.125	1928	1699	1070.375	908.75	12	208170	-999999	208160	0		RecMemTrialsPROC	FC_021_M11.png				SessionSelectionList										oldface	4000	2	2	2	39	12	168053	2	1000	168042	168055	999	11	169052	-1	2000	168065	171051	170025	1	973	1	12	2013	13	171065	-14	1000	171051	172051	0	43
REC090512	103111_fnca	2	1	1	-1143936076	1	75.031	75.030	2.0.10.147	2.0.10.242	2.0.10.242	1.0.0.195	7	123	1	2	3	Verdana	12	REC Stimuli\	39	6144	-999999	-1	6105	6604	{SPACE}	0	20	6624	-21	2000	6605	8503	""	1986	0.583333333333333	0.666666666666667	42.8571428571429	57.1428571428571	11.1111111111111	88.8888888888889	1142	1239.125	1928	1699	1070.375	908.75	12	208170	-999999	208160	0		RecMemTrialsPROC	92039.jpg				SessionSelectionList										newplace	4000	2	2	2	40	13	172065	2	1000	172053	172067	999	12	173064	-1	2000	172072	175063	173873	0	809	1	3	2013	13	175077	-14	1000	175063	176063	0	44
REC090512	103111_fnca	2	1	1	-1143936076	1	75.031	75.030	2.0.10.147	2.0.10.242	2.0.10.242	1.0.0.195	7	123	1	2	3	Verdana	12	REC Stimuli\	39	6144	-999999	-1	6105	6604	{SPACE}	0	20	6624	-21	2000	6605	8503	""	1986	0.583333333333333	0.666666666666667	42.8571428571429	57.1428571428571	11.1111111111111	88.8888888888889	1142	1239.125	1928	1699	1070.375	908.75	12	208170	-999999	208160	0		RecMemTrialsPROC	M59.bmp				SessionSelectionList										newface	3000	2	2	2	41	12	176076	3	1000	176065	176079	1000	12	177076	-1	2000	176082	179075	177849	1	773	3	3	2013	13	179089	-14	1000	179075	180075	0	45
REC090512	103111_fnca	2	1	1	-1143936076	1	75.031	75.030	2.0.10.147	2.0.10.242	2.0.10.242	1.0.0.195	7	123	1	2	3	Verdana	12	REC Stimuli\	39	6144	-999999	-1	6105	6604	{SPACE}	0	20	6624	-21	2000	6605	8503	""	1986	0.583333333333333	0.666666666666667	42.8571428571429	57.1428571428571	11.1111111111111	88.8888888888889	1142	1239.125	1928	1699	1070.375	908.75	12	208170	-999999	208160	0		RecMemTrialsPROC	PL_019_SCENE_05.png				SessionSelectionList										oldplace	4000	2	2	2	42	12	180088	2	1000	180077	180090	1000	12	181088	-1	2000	180099	183087	182249	1	1161	1	12	2012	12	183100	-13	1000	183087	184087	0	46
REC090512	103111_fnca	2	1	1	-1143936076	1	75.031	75.030	2.0.10.147	2.0.10.242	2.0.10.242	1.0.0.195	7	123	1	2	3	Verdana	12	REC Stimuli\	39	6144	-999999	-1	6105	6604	{SPACE}	0	20	6624	-21	2000	6605	8503	""	1986	0.583333333333333	0.666666666666667	42.8571428571429	57.1428571428571	11.1111111111111	88.8888888888889	1142	1239.125	1928	1699	1070.375	908.75	12	208170	-999999	208160	0		RecMemTrialsPROC	PL_016_SCENE_02.png				SessionSelectionList										oldplace	2000	2	2	2	43	12	184100	1	1000	184089	184101	999	11	185099	-1	2000	184110	187098	186233	0	1134	3	12	2013	13	187112	-14	1000	187098	188098	0	47
REC090512	103111_fnca	2	1	1	-1143936076	1	75.031	75.030	2.0.10.147	2.0.10.242	2.0.10.242	1.0.0.195	7	123	1	2	3	Verdana	12	REC Stimuli\	39	6144	-999999	-1	6105	6604	{SPACE}	0	20	6624	-21	2000	6605	8503	""	1986	0.583333333333333	0.666666666666667	42.8571428571429	57.1428571428571	11.1111111111111	88.8888888888889	1142	1239.125	1928	1699	1070.375	908.75	12	208170	-999999	208160	0		RecMemTrialsPROC	M52.bmp				SessionSelectionList										newface	2000	2	2	2	44	13	188112	2	1000	188100	188114	999	12	189111	-1	2000	188117	191110	190593	0	1482	1	3	2013	13	191124	-14	1000	191110	192110	0	48
REC090512	103111_fnca	2	1	1	-1143936076	1	75.031	75.030	2.0.10.147	2.0.10.242	2.0.10.242	1.0.0.195	7	123	1	2	3	Verdana	12	REC Stimuli\	39	6144	-999999	-1	6105	6604	{SPACE}	0	20	6624	-21	2000	6605	8503	""	1986	0.583333333333333	0.666666666666667	42.8571428571429	57.1428571428571	11.1111111111111	88.8888888888889	1142	1239.125	1928	1699	1070.375	908.75	12	208170	-999999	208160	0		RecMemTrialsPROC	92042.jpg				SessionSelectionList										newplace	2000	2	2	2	45	12	192123	3	1000	192112	192126	1000	12	193123	-1	2000	192130	195122	194089	0	966	1	3	2012	12	195135	-13	1000	195122	196122	0	49
REC090512	103111_fnca	2	1	1	-1143936076	1	75.031	75.030	2.0.10.147	2.0.10.242	2.0.10.242	1.0.0.195	7	123	1	2	3	Verdana	12	REC Stimuli\	39	6144	-999999	-1	6105	6604	{SPACE}	0	20	6624	-21	2000	6605	8503	""	1986	0.583333333333333	0.666666666666667	42.8571428571429	57.1428571428571	11.1111111111111	88.8888888888889	1142	1239.125	1928	1699	1070.375	908.75	12	208170	-999999	208160	0		RecMemTrialsPROC	p51.1.jpg				SessionSelectionList										newplace	1000	2	2	2	46	12	196135	2	1000	196124	196137	1000	12	197135	-1	2000	196143	199134	198113	1	978	3	3	2012	12	199147	-13	1000	199134	200134	0	50
REC090512	103111_fnca	2	1	1	-1143936076	1	75.031	75.030	2.0.10.147	2.0.10.242	2.0.10.242	1.0.0.195	7	123	1	2	3	Verdana	12	REC Stimuli\	39	6144	-999999	-1	6105	6604	{SPACE}	0	20	6624	-21	2000	6605	8503	""	1986	0.583333333333333	0.666666666666667	42.8571428571429	57.1428571428571	11.1111111111111	88.8888888888889	1142	1239.125	1928	1699	1070.375	908.75	12	208170	-999999	208160	0		RecMemTrialsPROC	FC_023_M12.png				SessionSelectionList										oldface	1000	2	2	2	47	12	200147	2	1000	200136	200149	999	11	201146	-1	2000	200159	203145	201857	1	711	1	12	2013	13	203159	-14	1000	203145	204145	0	51
REC090512	103111_fnca	2	1	1	-1143936076	1	75.031	75.030	2.0.10.147	2.0.10.242	2.0.10.242	1.0.0.195	7	123	1	2	3	Verdana	12	REC Stimuli\	39	6144	-999999	-1	6105	6604	{SPACE}	0	20	6624	-21	2000	6605	8503	""	1986	0.583333333333333	0.666666666666667	42.8571428571429	57.1428571428571	11.1111111111111	88.8888888888889	1142	1239.125	1928	1699	1070.375	908.75	12	208170	-999999	208160	0		RecMemTrialsPROC	FC_013_M7.png				SessionSelectionList										oldface	0	2	2	2	48	13	204159	2	1000	204147	204161	999	12	205158	-1	2000	204171	207157	206017	1	859	1	12	2013	13	207171	-14	1000	207157	208157	0	52
