ExperimentName	HCPID	RunNumber	Subject	Session	RandomSeed	Group	Laptop.RefreshRate	ScannerD2.RefreshRate	StudioVersion	RuntimeVersion	RuntimeVersionExpected	ExperimentVersion	triggercode	Allowed	Target	Nontarget	FontStyle	RunTrialNumber[Session]	TrialsPerRun[Session]	TotalRespGreater200[Session]	ConsecRTLess200[Session]	ConsecNonResp[Session]	StimuliDir	ACC_2_Back_Body	Avg_RT_For_Correct_Trials_2_Back_Body	ACC_0_Back_Body	Avg_RT_For_Correct_Trials_0_Back_Body	ACC_2_Back_Face	Avg_RT_For_Correct_Trials_2_Back_Face	ACC_0_Back_Face	Avg_RT_For_Correct_Trials_0_Back_Face	ACC_2_Back_Place	Avg_RT_For_Correct_Trials_2_Back_Place	ACC_0_Back_Place	Avg_RT_For_Correct_Trials_0_Back_Place	ACC_2_Back_Tools	Avg_RT_For_Correct_Trials_2_Back_Tools	ACC_0_Back_Tools	Avg_RT_For_Correct_Trials_0_Back_Tools	ExpInstrucFeelFreeToRest.OnsetDelay	ExpInstrucFeelFreeToRest.OnsetTime	ExpInstrucFeelFreeToRest.DurationError	ExpInstrucFeelFreeToRest.StartTime	ExpInstrucFeelFreeToRest.OnsetToOnsetTime	FeelFreeToRest.OnsetDelay	FeelFreeToRest.OnsetTime	FeelFreeToRest.DurationError	FeelFreeToRest.StartTime	FeelFreeToRest.OnsetToOnsetTime	SessionSelectionList	Procedure[Block]	Stimulus[Block]	RunNumberFilterValue	SessionSelectionList.Cycle	SessionSelectionList.Sample	Running[Block]	IntroButtonMap.OnsetDelay	IntroButtonMap.OnsetTime	IntroButtonMap.DurationError	IntroButtonMap.OnsetToOnsetTime	GetReady.OnsetDelay	GetReady.OnsetTime	GetReady.DurationError	GetReady.OnsetToOnsetTime	Cue2Back.OnsetDelay	Cue2Back.OnsetTime	Cue2Back.DurationError	Cue2Back.OnsetToOnsetTime	Run1Block1	TargetType	CorrectResponse	StimType	BlockType	RunTrialNumber[Block]	TrialsPerRun[Block]	TotalRespGreater200[Block]	ConsecRTLess200[Block]	ConsecNonResp[Block]	ControlAcc	ConsecSameResp	ExperimenterWindow.OnsetDelay	ExperimenterWindow.OnsetTime	ExperimenterWindow.DurationError	ExperimenterWindow.OnsetToOnsetTime	Stim.OnsetDelay	Stim.OnsetTime	Stim.DurationError	Stim.RTTime	Stim.ACC	Stim.RT	Stim.RESP	Stim.CRESP	Stim.OnsetToOnsetTime	Fix.OnsetDelay	Fix.OnsetTime	Fix.DurationError	Fix.OnsetToOnsetTime	CueTarget.OnsetDelay	CueTarget.OnsetTime	CueTarget.DurationError	CueTarget.OnsetToOnsetTime	Run1Block2	Fix15sec.OnsetDelay	Fix15sec.OnsetTime	Fix15sec.DurationError	Fix15sec.OnsetToOnsetTime	Run1Block3	Run1Block4	Run1Block5	Run1Block6	Run1Block7	Run1Block8	Block	Procedure[Trial]	Stimulus[Trial]	ReadyList	Running[Trial]	ReadyList.Cycle	ReadyList.Sample	SyncSlide.OnsetDelay	SyncSlide.OnsetTime	SyncSlide.DurationError	SyncSlide.FinishTime	SyncSlide.OnsetToOnsetTime	Trial
WM080112	103111_fnca	2	1	1	-151089282	1	75.030	75.031	2.0.10.147	2.0.10.242	2.0.10.242	1.0.0.439	7	234	2	3	Verdana	1	80	0	0	0	WM Stimuli\	1	878.6	1	726.1	1	1068	1	552.6	1	893.4	1	671.4	0.9	743.555555555556	1	624.2	12	315912	3	315901	27	39	315939	-999999	315915	0	22	TRSyncPROC	""	2	2	1	SessionSelectionList	104	7489	-999999	0	33	8356	-999999	0																																																	1	InitialTR	4	1	ReadyList	1	1	15	22657	-16	24641	0	1
WM080112	103111_fnca	2	1	1	-151089282	1	75.030	75.031	2.0.10.147	2.0.10.242	2.0.10.242	1.0.0.439	7	234	2	3	Verdana	1	80	0	0	0	WM Stimuli\	1	878.6	1	726.1	1	1068	1	552.6	1	893.4	1	671.4	0.9	743.555555555556	1	624.2	12	315912	3	315901	27	39	315939	-999999	315915	0	22	TRSyncPROC	""	2	2	1	SessionSelectionList	104	7489	-999999	0	33	8356	-999999	0																																																	1	InitialTR	3	2	ReadyList	1	2	14	24656	-15	26641	0	2
WM080112	103111_fnca	2	1	1	-151089282	1	75.030	75.031	2.0.10.147	2.0.10.242	2.0.10.242	1.0.0.439	7	234	2	3	Verdana	1	80	0	0	0	WM Stimuli\	1	878.6	1	726.1	1	1068	1	552.6	1	893.4	1	671.4	0.9	743.555555555556	1	624.2	12	315912	3	315901	27	39	315939	-999999	315915	0	22	TRSyncPROC	""	2	2	1	SessionSelectionList	104	7489	-999999	0	33	8356	-999999	0																																																	1	InitialTR	2	3	ReadyList	1	3	13	26655	-14	28641	0	3
WM080112	103111_fnca	2	1	1	-151089282	1	75.030	75.031	2.0.10.147	2.0.10.242	2.0.10.242	1.0.0.439	7	234	2	3	Verdana	1	80	0	0	0	WM Stimuli\	1	878.6	1	726.1	1	1068	1	552.6	1	893.4	1	671.4	0.9	743.555555555556	1	624.2	12	315912	3	315901	27	39	315939	-999999	315915	0	22	TRSyncPROC	""	2	2	1	SessionSelectionList	104	7489	-999999	0	33	8356	-999999	0																																																	1	InitialTR	1	4	ReadyList	1	4	12	28654	-13	30641	0	4
WM080112	103111_fnca	2	1	1	-151089282	1	75.030	75.031	2.0.10.147	2.0.10.242	2.0.10.242	1.0.0.439	7	234	2	3	Verdana	1	80	0	0	0	WM Stimuli\	1	878.6	1	726.1	1	1068	1	552.6	1	893.4	1	671.4	0.9	743.555555555556	1	624.2	12	315912	3	315901	27	39	315939	-999999	315915	0	23	Cue2BackPROC	""	2	2	2	SessionSelectionList									12	30654	-13	0																																													2												
WM080112	103111_fnca	2	1	1	-151089282	1	75.030	75.031	2.0.10.147	2.0.10.242	2.0.10.242	1.0.0.439	7	234	2	3	Verdana	1	80	0	0	0	WM Stimuli\	1	878.6	1	726.1	1	1068	1	552.6	1	893.4	1	671.4	0.9	743.555555555556	1	624.2	12	315912	3	315901	27	39	315939	-999999	315915	0	24	TrialsPROC	TO_014_TOOL14_BA.png	2	2	3	SessionSelectionList														nonlure	3	Tools	2-Back	2	80	1	0	0	0	1	52	35278	3	14	84	33226	-1	33701	1	475	3	3	2052	66	35292	-67	0																3												
WM080112	103111_fnca	2	1	1	-151089282	1	75.030	75.031	2.0.10.147	2.0.10.242	2.0.10.242	1.0.0.439	7	234	2	3	Verdana	1	80	0	0	0	WM Stimuli\	1	878.6	1	726.1	1	1068	1	552.6	1	893.4	1	671.4	0.9	743.555555555556	1	624.2	12	315912	3	315901	27	39	315939	-999999	315915	0	24	TrialsPROC	TO_013_TOOL13_BA.png	2	2	4	SessionSelectionList														nonlure	3	Tools	2-Back	3	80	2	0	0	0	2	39	37824	2	14	59	35785	-1	36349	1	564	3	3	2039	53	37838	-54	0																4												
WM080112	103111_fnca	2	1	1	-151089282	1	75.030	75.031	2.0.10.147	2.0.10.242	2.0.10.242	1.0.0.439	7	234	2	3	Verdana	1	80	0	0	0	WM Stimuli\	1	878.6	1	726.1	1	1068	1	552.6	1	893.4	1	671.4	0.9	743.555555555556	1	624.2	12	315912	3	315901	27	39	315939	-999999	315915	0	24	TrialsPROC	TO_016_TOOL16_BA.png	2	2	5	SessionSelectionList														nonlure	3	Tools	2-Back	4	80	3	0	0	0	3	39	40383	1	14	59	38344	-1	38985	1	641	3	3	2039	53	40397	-54	0																5												
WM080112	103111_fnca	2	1	1	-151089282	1	75.030	75.031	2.0.10.147	2.0.10.242	2.0.10.242	1.0.0.439	7	234	2	3	Verdana	1	80	0	0	0	WM Stimuli\	1	878.6	1	726.1	1	1068	1	552.6	1	893.4	1	671.4	0.9	743.555555555556	1	624.2	12	315912	3	315901	27	39	315939	-999999	315915	0	24	TrialsPROC	TO_014_TOOL14_BA.png	2	2	6	SessionSelectionList														lure	3	Tools	2-Back	5	80	4	0	0	0	4	39	42955	2	14	72	40916	-1	41958	1	1042	3	3	2039	53	42969	-54	0																6												
WM080112	103111_fnca	2	1	1	-151089282	1	75.030	75.031	2.0.10.147	2.0.10.242	2.0.10.242	1.0.0.439	7	234	2	3	Verdana	1	80	0	0	0	WM Stimuli\	1	878.6	1	726.1	1	1068	1	552.6	1	893.4	1	671.4	0.9	743.555555555556	1	624.2	12	315912	3	315901	27	39	315939	-999999	315915	0	24	TrialsPROC	TO_016_TOOL16_BA.png	2	2	7	SessionSelectionList														target	2	Tools	2-Back	6	80	5	0	0	0	1	39	45514	2	14	59	43475	-1	44762	1	1287	2	2	2039	53	45528	-54	0																7												
WM080112	103111_fnca	2	1	1	-151089282	1	75.030	75.031	2.0.10.147	2.0.10.242	2.0.10.242	1.0.0.439	7	234	2	3	Verdana	1	80	0	0	0	WM Stimuli\	1	878.6	1	726.1	1	1068	1	552.6	1	893.4	1	671.4	0.9	743.555555555556	1	624.2	12	315912	3	315901	27	39	315939	-999999	315915	0	24	TrialsPROC	TO_018_TOOL18_BA.png	2	2	8	SessionSelectionList														nonlure	3	Tools	2-Back	7	80	6	0	0	0	1	39	48073	2	14	59	46034	-1	46794	1	760	3	3	2039	53	48087	-54	0																8												
WM080112	103111_fnca	2	1	1	-151089282	1	75.030	75.031	2.0.10.147	2.0.10.242	2.0.10.242	1.0.0.439	7	234	2	3	Verdana	1	80	0	0	0	WM Stimuli\	1	878.6	1	726.1	1	1068	1	552.6	1	893.4	1	671.4	0.9	743.555555555556	1	624.2	12	315912	3	315901	27	39	315939	-999999	315915	0	24	TrialsPROC	TO_017_TOOL17_BA.png	2	2	9	SessionSelectionList														nonlure	3	Tools	2-Back	8	80	7	0	0	0	2	39	50632	2	14	59	48593	-1	49296	1	703	3	3	2039	53	50646	-54	0																9												
WM080112	103111_fnca	2	1	1	-151089282	1	75.030	75.031	2.0.10.147	2.0.10.242	2.0.10.242	1.0.0.439	7	234	2	3	Verdana	1	80	0	0	0	WM Stimuli\	1	878.6	1	726.1	1	1068	1	552.6	1	893.4	1	671.4	0.9	743.555555555556	1	624.2	12	315912	3	315901	27	39	315939	-999999	315915	0	24	TrialsPROC	TO_018_TOOL18_BA.png	2	2	10	SessionSelectionList														target	2	Tools	2-Back	9	80	8	0	0	0	1	39	53191	2	14	59	51152	-1	51655	1	503	2	2	2039	53	53205	-54	0																10												
WM080112	103111_fnca	2	1	1	-151089282	1	75.030	75.031	2.0.10.147	2.0.10.242	2.0.10.242	1.0.0.439	7	234	2	3	Verdana	1	80	0	0	0	WM Stimuli\	1	878.6	1	726.1	1	1068	1	552.6	1	893.4	1	671.4	0.9	743.555555555556	1	624.2	12	315912	3	315901	27	39	315939	-999999	315915	0	24	TrialsPROC	TO_015_TOOL15_BA.png	2	2	11	SessionSelectionList														nonlure	3	Tools	2-Back	10	80	9	0	0	0	1	39	55750	2	14	59	53711	-1	54428	1	717	3	3	2039	53	55764	-54	0																11												
WM080112	103111_fnca	2	1	1	-151089282	1	75.030	75.031	2.0.10.147	2.0.10.242	2.0.10.242	1.0.0.439	7	234	2	3	Verdana	1	80	0	0	0	WM Stimuli\	1	878.6	1	726.1	1	1068	1	552.6	1	893.4	1	671.4	0.9	743.555555555556	1	624.2	12	315912	3	315901	27	39	315939	-999999	315915	0	24	TrialsPROC	TO_017_TOOL17_BA.png	2	2	12	SessionSelectionList														lure	3	Tools	2-Back	11	80	10	0	0	0	1	39	58309	1	14	59	56270	-1	57360	0	1090	2	3	2039	53	58323	-54	0																12												
WM080112	103111_fnca	2	1	1	-151089282	1	75.030	75.031	2.0.10.147	2.0.10.242	2.0.10.242	1.0.0.439	7	234	2	3	Verdana	1	80	0	0	0	WM Stimuli\	1	878.6	1	726.1	1	1068	1	552.6	1	893.4	1	671.4	0.9	743.555555555556	1	624.2	12	315912	3	315901	27	39	315939	-999999	315915	0	25	Cue0BackPROC	BP_013_BP7_BA.png	2	2	13	SessionSelectionList																																										19	58789	-20	0												13												
WM080112	103111_fnca	2	1	1	-151089282	1	75.030	75.031	2.0.10.147	2.0.10.242	2.0.10.242	1.0.0.439	7	234	2	3	Verdana	1	80	0	0	0	WM Stimuli\	1	878.6	1	726.1	1	1068	1	552.6	1	893.4	1	671.4	0.9	743.555555555556	1	624.2	12	315912	3	315901	27	39	315939	-999999	315915	0	26	TrialsPROC	BP_015_H10-T_BA.png	2	2	14	SessionSelectionList														nonlure	3	Body	0-Back	12	80	11	0	0	100	1	38	63360	2	14	52	61322	-1	62510	1	1188	3	3	2038	52	63374	-53	0																14												
WM080112	103111_fnca	2	1	1	-151089282	1	75.030	75.031	2.0.10.147	2.0.10.242	2.0.10.242	1.0.0.439	7	234	2	3	Verdana	1	80	0	0	0	WM Stimuli\	1	878.6	1	726.1	1	1068	1	552.6	1	893.4	1	671.4	0.9	743.555555555556	1	624.2	12	315912	3	315901	27	39	315939	-999999	315915	0	26	TrialsPROC	BP_018_H13-T_BA.png	2	2	15	SessionSelectionList														nonlure	3	Body	0-Back	13	80	12	0	0	100	2	38	65919	2	14	59	63881	-1	64558	1	677	3	3	2038	52	65933	-53	0																15												
WM080112	103111_fnca	2	1	1	-151089282	1	75.030	75.031	2.0.10.147	2.0.10.242	2.0.10.242	1.0.0.439	7	234	2	3	Verdana	1	80	0	0	0	WM Stimuli\	1	878.6	1	726.1	1	1068	1	552.6	1	893.4	1	671.4	0.9	743.555555555556	1	624.2	12	315912	3	315901	27	39	315939	-999999	315915	0	26	TrialsPROC	BP_014_BP9_BA.png	2	2	16	SessionSelectionList														nonlure	3	Body	0-Back	14	80	13	0	0	100	3	39	68478	2	14	58	66439	-1	67191	1	752	3	3	2039	53	68492	-54	0																16												
WM080112	103111_fnca	2	1	1	-151089282	1	75.030	75.031	2.0.10.147	2.0.10.242	2.0.10.242	1.0.0.439	7	234	2	3	Verdana	1	80	0	0	0	WM Stimuli\	1	878.6	1	726.1	1	1068	1	552.6	1	893.4	1	671.4	0.9	743.555555555556	1	624.2	12	315912	3	315901	27	39	315939	-999999	315915	0	26	TrialsPROC	BP_018_H13-T_BA.png	2	2	17	SessionSelectionList														lure	3	Body	0-Back	15	80	14	0	0	100	4	39	71037	2	14	59	68998	-1	69985	1	987	3	3	2039	53	71051	-54	0																17												
WM080112	103111_fnca	2	1	1	-151089282	1	75.030	75.031	2.0.10.147	2.0.10.242	2.0.10.242	1.0.0.439	7	234	2	3	Verdana	1	80	0	0	0	WM Stimuli\	1	878.6	1	726.1	1	1068	1	552.6	1	893.4	1	671.4	0.9	743.555555555556	1	624.2	12	315912	3	315901	27	39	315939	-999999	315915	0	26	TrialsPROC	BP_013_BP7_BA.png	2	2	18	SessionSelectionList														target	2	Body	0-Back	16	80	15	0	0	100	1	38	73596	2	14	60	71558	-1	72282	1	724	2	2	2038	52	73610	-53	0																18												
WM080112	103111_fnca	2	1	1	-151089282	1	75.030	75.031	2.0.10.147	2.0.10.242	2.0.10.242	1.0.0.439	7	234	2	3	Verdana	1	80	0	0	0	WM Stimuli\	1	878.6	1	726.1	1	1068	1	552.6	1	893.4	1	671.4	0.9	743.555555555556	1	624.2	12	315912	3	315901	27	39	315939	-999999	315915	0	26	TrialsPROC	BP_015_H10-T_BA.png	2	2	19	SessionSelectionList														lure	3	Body	0-Back	17	80	16	0	0	100	1	39	76155	2	14	58	74116	-1	74702	1	586	3	3	2039	53	76169	-54	0																19												
WM080112	103111_fnca	2	1	1	-151089282	1	75.030	75.031	2.0.10.147	2.0.10.242	2.0.10.242	1.0.0.439	7	234	2	3	Verdana	1	80	0	0	0	WM Stimuli\	1	878.6	1	726.1	1	1068	1	552.6	1	893.4	1	671.4	0.9	743.555555555556	1	624.2	12	315912	3	315901	27	39	315939	-999999	315915	0	26	TrialsPROC	BP_016_H11-T_BA.png	2	2	20	SessionSelectionList														nonlure	3	Body	0-Back	18	80	17	0	0	100	2	38	78714	2	14	60	76676	-1	77175	1	499	3	3	2038	52	78728	-53	0																20												
WM080112	103111_fnca	2	1	1	-151089282	1	75.030	75.031	2.0.10.147	2.0.10.242	2.0.10.242	1.0.0.439	7	234	2	3	Verdana	1	80	0	0	0	WM Stimuli\	1	878.6	1	726.1	1	1068	1	552.6	1	893.4	1	671.4	0.9	743.555555555556	1	624.2	12	315912	3	315901	27	39	315939	-999999	315915	0	26	TrialsPROC	BP_013_BP7_BA.png	2	2	21	SessionSelectionList														target	2	Body	0-Back	19	80	18	0	0	100	1	39	81273	2	14	58	79234	-1	79871	1	637	2	2	2039	53	81287	-54	0																21												
WM080112	103111_fnca	2	1	1	-151089282	1	75.030	75.031	2.0.10.147	2.0.10.242	2.0.10.242	1.0.0.439	7	234	2	3	Verdana	1	80	0	0	0	WM Stimuli\	1	878.6	1	726.1	1	1068	1	552.6	1	893.4	1	671.4	0.9	743.555555555556	1	624.2	12	315912	3	315901	27	39	315939	-999999	315915	0	26	TrialsPROC	BP_017_H12-T_BA.png	2	2	22	SessionSelectionList														nonlure	3	Body	0-Back	20	80	19	0	0	100	1	39	83832	2	14	59	81793	-1	82310	1	517	3	3	2039	53	83846	-54	0																22												
WM080112	103111_fnca	2	1	1	-151089282	1	75.030	75.031	2.0.10.147	2.0.10.242	2.0.10.242	1.0.0.439	7	234	2	3	Verdana	1	80	0	0	0	WM Stimuli\	1	878.6	1	726.1	1	1068	1	552.6	1	893.4	1	671.4	0.9	743.555555555556	1	624.2	12	315912	3	315901	27	39	315939	-999999	315915	0	26	TrialsPROC	BP_014_BP9_BA.png	2	2	23	SessionSelectionList														lure	3	Body	0-Back	21	80	20	0	0	100	2	39	86391	2	14	59	84352	-1	85046	1	694	3	3	2039	53	86405	-54	0																23												
WM080112	103111_fnca	2	1	1	-151089282	1	75.030	75.031	2.0.10.147	2.0.10.242	2.0.10.242	1.0.0.439	7	234	2	3	Verdana	1	80	0	0	0	WM Stimuli\	1	878.6	1	726.1	1	1068	1	552.6	1	893.4	1	671.4	0.9	743.555555555556	1	624.2	12	315912	3	315901	27	39	315939	-999999	315915	0	27	Fix15secPROC	""	2	2	24	SessionSelectionList																																															6	86858	-7	0							24												
WM080112	103111_fnca	2	1	1	-151089282	1	75.030	75.031	2.0.10.147	2.0.10.242	2.0.10.242	1.0.0.439	7	234	2	3	Verdana	1	80	0	0	0	WM Stimuli\	1	878.6	1	726.1	1	1068	1	552.6	1	893.4	1	671.4	0.9	743.555555555556	1	624.2	12	315912	3	315901	27	39	315939	-999999	315915	0	28	Cue2BackPROC	""	2	2	25	SessionSelectionList									13	101865	-14	0																																													25												
WM080112	103111_fnca	2	1	1	-151089282	1	75.030	75.031	2.0.10.147	2.0.10.242	2.0.10.242	1.0.0.439	7	234	2	3	Verdana	1	80	0	0	0	WM Stimuli\	1	878.6	1	726.1	1	1068	1	552.6	1	893.4	1	671.4	0.9	743.555555555556	1	624.2	12	315912	3	315901	27	39	315939	-999999	315915	0	29	TrialsPROC	FC_015_M8.png	2	2	26	SessionSelectionList														nonlure	3	Face	2-Back	22	80	21	0	0	100	3	39	106463	3	14	72	104424	-1	105564	1	1140	3	3	2039	53	106477	-54	0																26												
WM080112	103111_fnca	2	1	1	-151089282	1	75.030	75.031	2.0.10.147	2.0.10.242	2.0.10.242	1.0.0.439	7	234	2	3	Verdana	1	80	0	0	0	WM Stimuli\	1	878.6	1	726.1	1	1068	1	552.6	1	893.4	1	671.4	0.9	743.555555555556	1	624.2	12	315912	3	315901	27	39	315939	-999999	315915	0	29	TrialsPROC	FC_018_F9.png	2	2	27	SessionSelectionList														nonlure	3	Face	2-Back	23	80	22	0	0	100	4	39	109035	2	14	72	106996	-1	107725	1	729	3	3	2039	53	109049	-54	0																27												
WM080112	103111_fnca	2	1	1	-151089282	1	75.030	75.031	2.0.10.147	2.0.10.242	2.0.10.242	1.0.0.439	7	234	2	3	Verdana	1	80	0	0	0	WM Stimuli\	1	878.6	1	726.1	1	1068	1	552.6	1	893.4	1	671.4	0.9	743.555555555556	1	624.2	12	315912	3	315901	27	39	315939	-999999	315915	0	29	TrialsPROC	FC_018_F9.png	2	2	28	SessionSelectionList														lure	3	Face	2-Back	24	80	23	0	0	100	5	39	111608	1	13	73	109569	-1	110453	1	884	3	3	2039	52	111621	-53	0																28												
WM080112	103111_fnca	2	1	1	-151089282	1	75.030	75.031	2.0.10.147	2.0.10.242	2.0.10.242	1.0.0.439	7	234	2	3	Verdana	1	80	0	0	0	WM Stimuli\	1	878.6	1	726.1	1	1068	1	552.6	1	893.4	1	671.4	0.9	743.555555555556	1	624.2	12	315912	3	315901	27	39	315939	-999999	315915	0	29	TrialsPROC	FC_017_M9.png	2	2	29	SessionSelectionList														nonlure	3	Face	2-Back	25	80	24	0	0	100	6	39	114180	1	14	72	112141	-1	113426	1	1285	3	3	2039	53	114194	-54	0																29												
WM080112	103111_fnca	2	1	1	-151089282	1	75.030	75.031	2.0.10.147	2.0.10.242	2.0.10.242	1.0.0.439	7	234	2	3	Verdana	1	80	0	0	0	WM Stimuli\	1	878.6	1	726.1	1	1068	1	552.6	1	893.4	1	671.4	0.9	743.555555555556	1	624.2	12	315912	3	315901	27	39	315939	-999999	315915	0	29	TrialsPROC	FC_017_M9.png	2	2	30	SessionSelectionList														lure	3	Face	2-Back	26	80	25	0	0	100	7	39	116752	2	14	72	114713	-1	115877	1	1164	3	3	2039	53	116766	-54	0																30												
WM080112	103111_fnca	2	1	1	-151089282	1	75.030	75.031	2.0.10.147	2.0.10.242	2.0.10.242	1.0.0.439	7	234	2	3	Verdana	1	80	0	0	0	WM Stimuli\	1	878.6	1	726.1	1	1068	1	552.6	1	893.4	1	671.4	0.9	743.555555555556	1	624.2	12	315912	3	315901	27	39	315939	-999999	315915	0	29	TrialsPROC	FC_016_F8.png	2	2	31	SessionSelectionList														nonlure	3	Face	2-Back	27	80	26	0	0	100	8	40	119325	1	13	72	117285	-1	118280	1	995	3	3	2040	53	119338	-54	0																31												
WM080112	103111_fnca	2	1	1	-151089282	1	75.030	75.031	2.0.10.147	2.0.10.242	2.0.10.242	1.0.0.439	7	234	2	3	Verdana	1	80	0	0	0	WM Stimuli\	1	878.6	1	726.1	1	1068	1	552.6	1	893.4	1	671.4	0.9	743.555555555556	1	624.2	12	315912	3	315901	27	39	315939	-999999	315915	0	29	TrialsPROC	FC_013_M7.png	2	2	32	SessionSelectionList														nonlure	3	Face	2-Back	28	80	27	0	0	100	9	39	121897	1	14	73	119858	-1	120808	1	950	3	3	2039	53	121911	-54	0																32												
WM080112	103111_fnca	2	1	1	-151089282	1	75.030	75.031	2.0.10.147	2.0.10.242	2.0.10.242	1.0.0.439	7	234	2	3	Verdana	1	80	0	0	0	WM Stimuli\	1	878.6	1	726.1	1	1068	1	552.6	1	893.4	1	671.4	0.9	743.555555555556	1	624.2	12	315912	3	315901	27	39	315939	-999999	315915	0	29	TrialsPROC	FC_014_F7.png	2	2	33	SessionSelectionList														nonlure	3	Face	2-Back	29	80	28	0	0	100	10	39	124469	3	14	72	122430	-1	123332	1	902	3	3	2039	53	124483	-54	0																33												
WM080112	103111_fnca	2	1	1	-151089282	1	75.030	75.031	2.0.10.147	2.0.10.242	2.0.10.242	1.0.0.439	7	234	2	3	Verdana	1	80	0	0	0	WM Stimuli\	1	878.6	1	726.1	1	1068	1	552.6	1	893.4	1	671.4	0.9	743.555555555556	1	624.2	12	315912	3	315901	27	39	315939	-999999	315915	0	29	TrialsPROC	FC_013_M7.png	2	2	34	SessionSelectionList														target	2	Face	2-Back	30	80	29	0	0	100	1	40	127042	1	13	72	125002	-1	125964	1	962	2	2	2040	53	127055	-54	0																34												
WM080112	103111_fnca	2	1	1	-151089282	1	75.030	75.031	2.0.10.147	2.0.10.242	2.0.10.242	1.0.0.439	7	234	2	3	Verdana	1	80	0	0	0	WM Stimuli\	1	878.6	1	726.1	1	1068	1	552.6	1	893.4	1	671.4	0.9	743.555555555556	1	624.2	12	315912	3	315901	27	39	315939	-999999	315915	0	29	TrialsPROC	FC_014_F7.png	2	2	35	SessionSelectionList														target	2	Face	2-Back	31	80	30	0	0	100	2	39	129614	1	14	73	127575	-1	129244	1	1669	2	2	2039	53	129628	-54	0																35												
WM080112	103111_fnca	2	1	1	-151089282	1	75.030	75.031	2.0.10.147	2.0.10.242	2.0.10.242	1.0.0.439	7	234	2	3	Verdana	1	80	0	0	0	WM Stimuli\	1	878.6	1	726.1	1	1068	1	552.6	1	893.4	1	671.4	0.9	743.555555555556	1	624.2	12	315912	3	315901	27	39	315939	-999999	315915	0	30	Cue0BackPROC	TO_019_TOOL19_BA.png	2	2	36	SessionSelectionList																																										19	130094	-20	0												36												
WM080112	103111_fnca	2	1	1	-151089282	1	75.030	75.031	2.0.10.147	2.0.10.242	2.0.10.242	1.0.0.439	7	234	2	3	Verdana	1	80	0	0	0	WM Stimuli\	1	878.6	1	726.1	1	1068	1	552.6	1	893.4	1	671.4	0.9	743.555555555556	1	624.2	12	315912	3	315901	27	39	315939	-999999	315915	0	31	TrialsPROC	TO_019_TOOL19_BA.png	2	2	37	SessionSelectionList														target	2	Tools	0-Back	32	80	31	0	0	100	3	39	134665	2	14	51	132626	-1	133603	1	977	2	2	2039	53	134679	-54	0																37												
WM080112	103111_fnca	2	1	1	-151089282	1	75.030	75.031	2.0.10.147	2.0.10.242	2.0.10.242	1.0.0.439	7	234	2	3	Verdana	1	80	0	0	0	WM Stimuli\	1	878.6	1	726.1	1	1068	1	552.6	1	893.4	1	671.4	0.9	743.555555555556	1	624.2	12	315912	3	315901	27	39	315939	-999999	315915	0	31	TrialsPROC	TO_024_TOOL24_BA.png	2	2	38	SessionSelectionList														nonlure	3	Tools	0-Back	33	80	32	0	0	100	1	39	137224	2	14	59	135185	-1	135729	1	544	3	3	2039	53	137238	-54	0																38												
WM080112	103111_fnca	2	1	1	-151089282	1	75.030	75.031	2.0.10.147	2.0.10.242	2.0.10.242	1.0.0.439	7	234	2	3	Verdana	1	80	0	0	0	WM Stimuli\	1	878.6	1	726.1	1	1068	1	552.6	1	893.4	1	671.4	0.9	743.555555555556	1	624.2	12	315912	3	315901	27	39	315939	-999999	315915	0	31	TrialsPROC	TO_019_TOOL19_BA.png	2	2	39	SessionSelectionList														target	2	Tools	0-Back	34	80	33	0	0	100	1	39	139783	1	14	59	137744	-1	138477	1	733	2	2	2039	53	139797	-54	0																39												
WM080112	103111_fnca	2	1	1	-151089282	1	75.030	75.031	2.0.10.147	2.0.10.242	2.0.10.242	1.0.0.439	7	234	2	3	Verdana	1	80	0	0	0	WM Stimuli\	1	878.6	1	726.1	1	1068	1	552.6	1	893.4	1	671.4	0.9	743.555555555556	1	624.2	12	315912	3	315901	27	39	315939	-999999	315915	0	31	TrialsPROC	TO_023_TOOL23_BA.png	2	2	40	SessionSelectionList														nonlure	3	Tools	0-Back	35	80	34	0	0	100	1	39	142342	2	14	59	140303	-1	140805	1	502	3	3	2039	53	142356	-54	0																40												
WM080112	103111_fnca	2	1	1	-151089282	1	75.030	75.031	2.0.10.147	2.0.10.242	2.0.10.242	1.0.0.439	7	234	2	3	Verdana	1	80	0	0	0	WM Stimuli\	1	878.6	1	726.1	1	1068	1	552.6	1	893.4	1	671.4	0.9	743.555555555556	1	624.2	12	315912	3	315901	27	39	315939	-999999	315915	0	31	TrialsPROC	TO_020_TOOL20_BA.png	2	2	41	SessionSelectionList														nonlure	3	Tools	0-Back	36	80	35	0	0	100	2	39	144901	1	14	59	142862	-1	143426	1	564	3	3	2039	53	144915	-54	0																41												
WM080112	103111_fnca	2	1	1	-151089282	1	75.030	75.031	2.0.10.147	2.0.10.242	2.0.10.242	1.0.0.439	7	234	2	3	Verdana	1	80	0	0	0	WM Stimuli\	1	878.6	1	726.1	1	1068	1	552.6	1	893.4	1	671.4	0.9	743.555555555556	1	624.2	12	315912	3	315901	27	39	315939	-999999	315915	0	31	TrialsPROC	TO_020_TOOL20_BA.png	2	2	42	SessionSelectionList														lure	3	Tools	0-Back	37	80	36	0	0	100	3	39	147460	1	14	59	145421	-1	146051	1	630	3	3	2039	53	147474	-54	0																42												
WM080112	103111_fnca	2	1	1	-151089282	1	75.030	75.031	2.0.10.147	2.0.10.242	2.0.10.242	1.0.0.439	7	234	2	3	Verdana	1	80	0	0	0	WM Stimuli\	1	878.6	1	726.1	1	1068	1	552.6	1	893.4	1	671.4	0.9	743.555555555556	1	624.2	12	315912	3	315901	27	39	315939	-999999	315915	0	31	TrialsPROC	TO_022_TOOL22_BA.png	2	2	43	SessionSelectionList														nonlure	3	Tools	0-Back	38	80	37	0	0	100	4	39	150019	1	14	59	147980	-1	148655	1	675	3	3	2039	53	150033	-54	0																43												
WM080112	103111_fnca	2	1	1	-151089282	1	75.030	75.031	2.0.10.147	2.0.10.242	2.0.10.242	1.0.0.439	7	234	2	3	Verdana	1	80	0	0	0	WM Stimuli\	1	878.6	1	726.1	1	1068	1	552.6	1	893.4	1	671.4	0.9	743.555555555556	1	624.2	12	315912	3	315901	27	39	315939	-999999	315915	0	31	TrialsPROC	TO_022_TOOL22_BA.png	2	2	44	SessionSelectionList														lure	3	Tools	0-Back	39	80	38	0	0	100	5	39	152578	1	14	59	150539	-1	151074	1	535	3	3	2039	53	152592	-54	0																44												
WM080112	103111_fnca	2	1	1	-151089282	1	75.030	75.031	2.0.10.147	2.0.10.242	2.0.10.242	1.0.0.439	7	234	2	3	Verdana	1	80	0	0	0	WM Stimuli\	1	878.6	1	726.1	1	1068	1	552.6	1	893.4	1	671.4	0.9	743.555555555556	1	624.2	12	315912	3	315901	27	39	315939	-999999	315915	0	31	TrialsPROC	TO_021_TOOL21_BA.png	2	2	45	SessionSelectionList														nonlure	3	Tools	0-Back	40	80	39	0	0	100	6	39	155137	1	14	59	153098	-1	153682	1	584	3	3	2039	53	155151	-54	0																45												
WM080112	103111_fnca	2	1	1	-151089282	1	75.030	75.031	2.0.10.147	2.0.10.242	2.0.10.242	1.0.0.439	7	234	2	3	Verdana	1	80	0	0	0	WM Stimuli\	1	878.6	1	726.1	1	1068	1	552.6	1	893.4	1	671.4	0.9	743.555555555556	1	624.2	12	315912	3	315901	27	39	315939	-999999	315915	0	31	TrialsPROC	TO_021_TOOL21_BA.png	2	2	46	SessionSelectionList														lure	3	Tools	0-Back	41	80	40	0	0	100	7	39	157696	1	14	59	155657	-1	156155	1	498	3	3	2039	53	157710	-54	0																46												
WM080112	103111_fnca	2	1	1	-151089282	1	75.030	75.031	2.0.10.147	2.0.10.242	2.0.10.242	1.0.0.439	7	234	2	3	Verdana	1	80	0	0	0	WM Stimuli\	1	878.6	1	726.1	1	1068	1	552.6	1	893.4	1	671.4	0.9	743.555555555556	1	624.2	12	315912	3	315901	27	39	315939	-999999	315915	0	32	Fix15secPROC	""	2	2	47	SessionSelectionList																																															6	158163	-7	0							47												
WM080112	103111_fnca	2	1	1	-151089282	1	75.030	75.031	2.0.10.147	2.0.10.242	2.0.10.242	1.0.0.439	7	234	2	3	Verdana	1	80	0	0	0	WM Stimuli\	1	878.6	1	726.1	1	1068	1	552.6	1	893.4	1	671.4	0.9	743.555555555556	1	624.2	12	315912	3	315901	27	39	315939	-999999	315915	0	33	Cue2BackPROC	""	2	2	48	SessionSelectionList									13	173170	-14	0																																													48												
WM080112	103111_fnca	2	1	1	-151089282	1	75.030	75.031	2.0.10.147	2.0.10.242	2.0.10.242	1.0.0.439	7	234	2	3	Verdana	1	80	0	0	0	WM Stimuli\	1	878.6	1	726.1	1	1068	1	552.6	1	893.4	1	671.4	0.9	743.555555555556	1	624.2	12	315912	3	315901	27	39	315939	-999999	315915	0	34	TrialsPROC	BP_020_H17-T_BA.png	2	2	49	SessionSelectionList														nonlure	3	Body	2-Back	42	80	41	0	0	100	8	40	177755	1	13	58	175715	-1	176268	1	553	3	3	2040	53	177768	-54	0																49												
WM080112	103111_fnca	2	1	1	-151089282	1	75.030	75.031	2.0.10.147	2.0.10.242	2.0.10.242	1.0.0.439	7	234	2	3	Verdana	1	80	0	0	0	WM Stimuli\	1	878.6	1	726.1	1	1068	1	552.6	1	893.4	1	671.4	0.9	743.555555555556	1	624.2	12	315912	3	315901	27	39	315939	-999999	315915	0	34	TrialsPROC	BP_019_H14-T_BA.png	2	2	50	SessionSelectionList														nonlure	3	Body	2-Back	43	80	42	0	0	100	9	39	180314	1	13	60	178275	-1	178868	1	593	3	3	2039	52	180327	-53	0																50												
WM080112	103111_fnca	2	1	1	-151089282	1	75.030	75.031	2.0.10.147	2.0.10.242	2.0.10.242	1.0.0.439	7	234	2	3	Verdana	1	80	0	0	0	WM Stimuli\	1	878.6	1	726.1	1	1068	1	552.6	1	893.4	1	671.4	0.9	743.555555555556	1	624.2	12	315912	3	315901	27	39	315939	-999999	315915	0	34	TrialsPROC	BP_020_H17-T_BA.png	2	2	51	SessionSelectionList														target	2	Body	2-Back	44	80	43	0	0	100	1	38	182872	2	14	59	180834	-1	181298	1	464	2	2	2038	52	182886	-53	0																51												
WM080112	103111_fnca	2	1	1	-151089282	1	75.030	75.031	2.0.10.147	2.0.10.242	2.0.10.242	1.0.0.439	7	234	2	3	Verdana	1	80	0	0	0	WM Stimuli\	1	878.6	1	726.1	1	1068	1	552.6	1	893.4	1	671.4	0.9	743.555555555556	1	624.2	12	315912	3	315901	27	39	315939	-999999	315915	0	34	TrialsPROC	BP_019_H14-T_BA.png	2	2	52	SessionSelectionList														target	2	Body	2-Back	45	80	44	0	0	100	2	38	185431	2	14	59	183393	-1	184318	1	925	2	2	2038	52	185445	-53	0																52												
WM080112	103111_fnca	2	1	1	-151089282	1	75.030	75.031	2.0.10.147	2.0.10.242	2.0.10.242	1.0.0.439	7	234	2	3	Verdana	1	80	0	0	0	WM Stimuli\	1	878.6	1	726.1	1	1068	1	552.6	1	893.4	1	671.4	0.9	743.555555555556	1	624.2	12	315912	3	315901	27	39	315939	-999999	315915	0	34	TrialsPROC	BP_024_H3-T_BA.png	2	2	53	SessionSelectionList														nonlure	3	Body	2-Back	46	80	45	0	0	100	1	38	187990	2	14	59	185952	-1	186854	1	902	3	3	2038	52	188004	-53	0																53												
WM080112	103111_fnca	2	1	1	-151089282	1	75.030	75.031	2.0.10.147	2.0.10.242	2.0.10.242	1.0.0.439	7	234	2	3	Verdana	1	80	0	0	0	WM Stimuli\	1	878.6	1	726.1	1	1068	1	552.6	1	893.4	1	671.4	0.9	743.555555555556	1	624.2	12	315912	3	315901	27	39	315939	-999999	315915	0	34	TrialsPROC	BP_024_H3-T_BA.png	2	2	54	SessionSelectionList														lure	3	Body	2-Back	47	80	46	0	0	100	2	39	190549	2	14	58	188510	-1	189484	1	974	3	3	2039	53	190563	-54	0																54												
WM080112	103111_fnca	2	1	1	-151089282	1	75.030	75.031	2.0.10.147	2.0.10.242	2.0.10.242	1.0.0.439	7	234	2	3	Verdana	1	80	0	0	0	WM Stimuli\	1	878.6	1	726.1	1	1068	1	552.6	1	893.4	1	671.4	0.9	743.555555555556	1	624.2	12	315912	3	315901	27	39	315939	-999999	315915	0	34	TrialsPROC	BP_025_H5-T_BA.png	2	2	55	SessionSelectionList														nonlure	3	Body	2-Back	48	80	47	0	0	100	3	39	193108	2	14	59	191069	-1	192194	1	1125	3	3	2039	53	193122	-54	0																55												
WM080112	103111_fnca	2	1	1	-151089282	1	75.030	75.031	2.0.10.147	2.0.10.242	2.0.10.242	1.0.0.439	7	234	2	3	Verdana	1	80	0	0	0	WM Stimuli\	1	878.6	1	726.1	1	1068	1	552.6	1	893.4	1	671.4	0.9	743.555555555556	1	624.2	12	315912	3	315901	27	39	315939	-999999	315915	0	34	TrialsPROC	BP_023_H25-T_BA.png	2	2	56	SessionSelectionList														nonlure	3	Body	2-Back	49	80	48	0	0	100	4	39	195667	2	14	59	193628	-1	194857	1	1229	3	3	2039	53	195681	-54	0																56												
WM080112	103111_fnca	2	1	1	-151089282	1	75.030	75.031	2.0.10.147	2.0.10.242	2.0.10.242	1.0.0.439	7	234	2	3	Verdana	1	80	0	0	0	WM Stimuli\	1	878.6	1	726.1	1	1068	1	552.6	1	893.4	1	671.4	0.9	743.555555555556	1	624.2	12	315912	3	315901	27	39	315939	-999999	315915	0	34	TrialsPROC	BP_022_H24-T_BA.png	2	2	57	SessionSelectionList														nonlure	3	Body	2-Back	50	80	49	0	0	100	5	39	198226	2	14	59	196187	-1	197105	1	918	3	3	2039	53	198240	-54	0																57												
WM080112	103111_fnca	2	1	1	-151089282	1	75.030	75.031	2.0.10.147	2.0.10.242	2.0.10.242	1.0.0.439	7	234	2	3	Verdana	1	80	0	0	0	WM Stimuli\	1	878.6	1	726.1	1	1068	1	552.6	1	893.4	1	671.4	0.9	743.555555555556	1	624.2	12	315912	3	315901	27	39	315939	-999999	315915	0	34	TrialsPROC	BP_022_H24-T_BA.png	2	2	58	SessionSelectionList														lure	3	Body	2-Back	51	80	50	0	0	100	6	39	200785	2	14	59	198746	-1	199849	1	1103	3	3	2039	53	200799	-54	0																58												
WM080112	103111_fnca	2	1	1	-151089282	1	75.030	75.031	2.0.10.147	2.0.10.242	2.0.10.242	1.0.0.439	7	234	2	3	Verdana	1	80	0	0	0	WM Stimuli\	1	878.6	1	726.1	1	1068	1	552.6	1	893.4	1	671.4	0.9	743.555555555556	1	624.2	12	315912	3	315901	27	39	315939	-999999	315915	0	35	Cue2BackPROC	""	2	2	59	SessionSelectionList									6	201252	-7	0																																													59												
WM080112	103111_fnca	2	1	1	-151089282	1	75.030	75.031	2.0.10.147	2.0.10.242	2.0.10.242	1.0.0.439	7	234	2	3	Verdana	1	80	0	0	0	WM Stimuli\	1	878.6	1	726.1	1	1068	1	552.6	1	893.4	1	671.4	0.9	743.555555555556	1	624.2	12	315912	3	315901	27	39	315939	-999999	315915	0	36	TrialsPROC	PL_019_SCENE_05.png	2	2	60	SessionSelectionList														nonlure	3	Place	2-Back	52	80	51	0	0	100	7	39	205850	1	14	65	203811	-1	205149	1	1338	3	3	2039	53	205864	-54	0																60												
WM080112	103111_fnca	2	1	1	-151089282	1	75.030	75.031	2.0.10.147	2.0.10.242	2.0.10.242	1.0.0.439	7	234	2	3	Verdana	1	80	0	0	0	WM Stimuli\	1	878.6	1	726.1	1	1068	1	552.6	1	893.4	1	671.4	0.9	743.555555555556	1	624.2	12	315912	3	315901	27	39	315939	-999999	315915	0	36	TrialsPROC	PL_017_SCENE_03.png	2	2	61	SessionSelectionList														nonlure	3	Place	2-Back	53	80	52	0	0	100	8	39	208422	2	14	72	206383	-1	207276	1	893	3	3	2039	53	208436	-54	0																61												
WM080112	103111_fnca	2	1	1	-151089282	1	75.030	75.031	2.0.10.147	2.0.10.242	2.0.10.242	1.0.0.439	7	234	2	3	Verdana	1	80	0	0	0	WM Stimuli\	1	878.6	1	726.1	1	1068	1	552.6	1	893.4	1	671.4	0.9	743.555555555556	1	624.2	12	315912	3	315901	27	39	315939	-999999	315915	0	36	TrialsPROC	PL_017_SCENE_03.png	2	2	62	SessionSelectionList														lure	3	Place	2-Back	54	80	53	0	0	100	9	40	210995	1	13	72	208955	-1	209829	1	874	3	3	2040	53	211008	-54	0																62												
WM080112	103111_fnca	2	1	1	-151089282	1	75.030	75.031	2.0.10.147	2.0.10.242	2.0.10.242	1.0.0.439	7	234	2	3	Verdana	1	80	0	0	0	WM Stimuli\	1	878.6	1	726.1	1	1068	1	552.6	1	893.4	1	671.4	0.9	743.555555555556	1	624.2	12	315912	3	315901	27	39	315939	-999999	315915	0	36	TrialsPROC	PL_016_SCENE_02.png	2	2	63	SessionSelectionList														nonlure	3	Place	2-Back	55	80	54	0	0	100	10	39	213567	1	14	73	211528	-1	212306	1	778	3	3	2039	53	213581	-54	0																63												
WM080112	103111_fnca	2	1	1	-151089282	1	75.030	75.031	2.0.10.147	2.0.10.242	2.0.10.242	1.0.0.439	7	234	2	3	Verdana	1	80	0	0	0	WM Stimuli\	1	878.6	1	726.1	1	1068	1	552.6	1	893.4	1	671.4	0.9	743.555555555556	1	624.2	12	315912	3	315901	27	39	315939	-999999	315915	0	36	TrialsPROC	PL_015_SCENE_01.png	2	2	64	SessionSelectionList														nonlure	3	Place	2-Back	56	80	55	0	0	100	11	39	216139	2	14	72	214100	-1	214830	1	730	3	3	2039	53	216153	-54	0																64												
WM080112	103111_fnca	2	1	1	-151089282	1	75.030	75.031	2.0.10.147	2.0.10.242	2.0.10.242	1.0.0.439	7	234	2	3	Verdana	1	80	0	0	0	WM Stimuli\	1	878.6	1	726.1	1	1068	1	552.6	1	893.4	1	671.4	0.9	743.555555555556	1	624.2	12	315912	3	315901	27	39	315939	-999999	315915	0	36	TrialsPROC	PL_016_SCENE_02.png	2	2	65	SessionSelectionList														target	2	Place	2-Back	57	80	56	0	0	100	1	39	218711	2	14	72	216672	-1	217525	1	853	2	2	2039	53	218725	-54	0																65												
WM080112	103111_fnca	2	1	1	-151089282	1	75.030	75.031	2.0.10.147	2.0.10.242	2.0.10.242	1.0.0.439	7	234	2	3	Verdana	1	80	0	0	0	WM Stimuli\	1	878.6	1	726.1	1	1068	1	552.6	1	893.4	1	671.4	0.9	743.555555555556	1	624.2	12	315912	3	315901	27	39	315939	-999999	315915	0	36	TrialsPROC	PL_015_SCENE_01.png	2	2	66	SessionSelectionList														target	2	Place	2-Back	58	80	57	0	0	100	2	39	221284	1	13	73	219245	-1	220202	1	957	2	2	2039	52	221297	-53	0																66												
WM080112	103111_fnca	2	1	1	-151089282	1	75.030	75.031	2.0.10.147	2.0.10.242	2.0.10.242	1.0.0.439	7	234	2	3	Verdana	1	80	0	0	0	WM Stimuli\	1	878.6	1	726.1	1	1068	1	552.6	1	893.4	1	671.4	0.9	743.555555555556	1	624.2	12	315912	3	315901	27	39	315939	-999999	315915	0	36	TrialsPROC	PL_020_SCENE_06.png	2	2	67	SessionSelectionList														nonlure	3	Place	2-Back	59	80	58	0	0	100	1	39	223856	1	14	72	221817	-1	222729	1	912	3	3	2039	53	223870	-54	0																67												
WM080112	103111_fnca	2	1	1	-151089282	1	75.030	75.031	2.0.10.147	2.0.10.242	2.0.10.242	1.0.0.439	7	234	2	3	Verdana	1	80	0	0	0	WM Stimuli\	1	878.6	1	726.1	1	1068	1	552.6	1	893.4	1	671.4	0.9	743.555555555556	1	624.2	12	315912	3	315901	27	39	315939	-999999	315915	0	36	TrialsPROC	PL_020_SCENE_06.png	2	2	68	SessionSelectionList														lure	3	Place	2-Back	60	80	59	0	0	100	2	39	226428	2	14	72	224389	-1	225181	1	792	3	3	2039	53	226442	-54	0																68												
WM080112	103111_fnca	2	1	1	-151089282	1	75.030	75.031	2.0.10.147	2.0.10.242	2.0.10.242	1.0.0.439	7	234	2	3	Verdana	1	80	0	0	0	WM Stimuli\	1	878.6	1	726.1	1	1068	1	552.6	1	893.4	1	671.4	0.9	743.555555555556	1	624.2	12	315912	3	315901	27	39	315939	-999999	315915	0	36	TrialsPROC	PL_018_SCENE_04.png	2	2	69	SessionSelectionList														nonlure	3	Place	2-Back	61	80	60	0	0	100	3	39	229001	1	13	73	226962	-1	227769	1	807	3	3	2039	52	229014	-53	0																69												
WM080112	103111_fnca	2	1	1	-151089282	1	75.030	75.031	2.0.10.147	2.0.10.242	2.0.10.242	1.0.0.439	7	234	2	3	Verdana	1	80	0	0	0	WM Stimuli\	1	878.6	1	726.1	1	1068	1	552.6	1	893.4	1	671.4	0.9	743.555555555556	1	624.2	12	315912	3	315901	27	39	315939	-999999	315915	0	37	Fix15secPROC	""	2	2	70	SessionSelectionList																																															5	229467	-6	0							70												
WM080112	103111_fnca	2	1	1	-151089282	1	75.030	75.031	2.0.10.147	2.0.10.242	2.0.10.242	1.0.0.439	7	234	2	3	Verdana	1	80	0	0	0	WM Stimuli\	1	878.6	1	726.1	1	1068	1	552.6	1	893.4	1	671.4	0.9	743.555555555556	1	624.2	12	315912	3	315901	27	39	315939	-999999	315915	0	38	Cue0BackPROC	FC_020_F10.png	2	2	71	SessionSelectionList																																										26	244488	-27	0												71												
WM080112	103111_fnca	2	1	1	-151089282	1	75.030	75.031	2.0.10.147	2.0.10.242	2.0.10.242	1.0.0.439	7	234	2	3	Verdana	1	80	0	0	0	WM Stimuli\	1	878.6	1	726.1	1	1068	1	552.6	1	893.4	1	671.4	0.9	743.555555555556	1	624.2	12	315912	3	315901	27	39	315939	-999999	315915	0	39	TrialsPROC	FC_024_F12.png	2	2	72	SessionSelectionList														nonlure	3	Face	0-Back	62	80	61	0	0	100	4	40	249073	1	13	71	247033	-1	247865	1	832	3	3	2040	53	249086	-54	0																72												
WM080112	103111_fnca	2	1	1	-151089282	1	75.030	75.031	2.0.10.147	2.0.10.242	2.0.10.242	1.0.0.439	7	234	2	3	Verdana	1	80	0	0	0	WM Stimuli\	1	878.6	1	726.1	1	1068	1	552.6	1	893.4	1	671.4	0.9	743.555555555556	1	624.2	12	315912	3	315901	27	39	315939	-999999	315915	0	39	TrialsPROC	FC_023_M12.png	2	2	73	SessionSelectionList														nonlure	3	Face	0-Back	63	80	62	0	0	100	5	39	251645	1	14	73	249606	-1	250160	1	554	3	3	2039	53	251659	-54	0																73												
WM080112	103111_fnca	2	1	1	-151089282	1	75.030	75.031	2.0.10.147	2.0.10.242	2.0.10.242	1.0.0.439	7	234	2	3	Verdana	1	80	0	0	0	WM Stimuli\	1	878.6	1	726.1	1	1068	1	552.6	1	893.4	1	671.4	0.9	743.555555555556	1	624.2	12	315912	3	315901	27	39	315939	-999999	315915	0	39	TrialsPROC	FC_020_F10.png	2	2	74	SessionSelectionList														target	2	Face	0-Back	64	80	63	0	0	100	1	39	254217	3	14	72	252178	-1	252624	1	446	2	2	2039	53	254231	-54	0																74												
WM080112	103111_fnca	2	1	1	-151089282	1	75.030	75.031	2.0.10.147	2.0.10.242	2.0.10.242	1.0.0.439	7	234	2	3	Verdana	1	80	0	0	0	WM Stimuli\	1	878.6	1	726.1	1	1068	1	552.6	1	893.4	1	671.4	0.9	743.555555555556	1	624.2	12	315912	3	315901	27	39	315939	-999999	315915	0	39	TrialsPROC	FC_024_F12.png	2	2	75	SessionSelectionList														lure	3	Face	0-Back	65	80	64	0	0	100	1	40	256790	1	13	72	254750	-1	255136	1	386	3	3	2040	53	256803	-54	0																75												
WM080112	103111_fnca	2	1	1	-151089282	1	75.030	75.031	2.0.10.147	2.0.10.242	2.0.10.242	1.0.0.439	7	234	2	3	Verdana	1	80	0	0	0	WM Stimuli\	1	878.6	1	726.1	1	1068	1	552.6	1	893.4	1	671.4	0.9	743.555555555556	1	624.2	12	315912	3	315901	27	39	315939	-999999	315915	0	39	TrialsPROC	FC_020_F10.png	2	2	76	SessionSelectionList														target	2	Face	0-Back	66	80	65	0	0	100	1	39	259362	1	13	73	257323	-1	257818	1	495	2	2	2039	52	259375	-53	0																76												
WM080112	103111_fnca	2	1	1	-151089282	1	75.030	75.031	2.0.10.147	2.0.10.242	2.0.10.242	1.0.0.439	7	234	2	3	Verdana	1	80	0	0	0	WM Stimuli\	1	878.6	1	726.1	1	1068	1	552.6	1	893.4	1	671.4	0.9	743.555555555556	1	624.2	12	315912	3	315901	27	39	315939	-999999	315915	0	39	TrialsPROC	FC_022_F11.png	2	2	77	SessionSelectionList														nonlure	3	Face	0-Back	67	80	66	0	0	100	1	39	261934	2	14	72	259895	-1	260541	1	646	3	3	2039	53	261948	-54	0																77												
WM080112	103111_fnca	2	1	1	-151089282	1	75.030	75.031	2.0.10.147	2.0.10.242	2.0.10.242	1.0.0.439	7	234	2	3	Verdana	1	80	0	0	0	WM Stimuli\	1	878.6	1	726.1	1	1068	1	552.6	1	893.4	1	671.4	0.9	743.555555555556	1	624.2	12	315912	3	315901	27	39	315939	-999999	315915	0	39	TrialsPROC	FC_023_M12.png	2	2	78	SessionSelectionList														lure	3	Face	0-Back	68	80	67	0	0	100	2	39	264506	2	14	72	262467	-1	263057	1	590	3	3	2039	53	264520	-54	0																78												
WM080112	103111_fnca	2	1	1	-151089282	1	75.030	75.031	2.0.10.147	2.0.10.242	2.0.10.242	1.0.0.439	7	234	2	3	Verdana	1	80	0	0	0	WM Stimuli\	1	878.6	1	726.1	1	1068	1	552.6	1	893.4	1	671.4	0.9	743.555555555556	1	624.2	12	315912	3	315901	27	39	315939	-999999	315915	0	39	TrialsPROC	FC_021_M11.png	2	2	79	SessionSelectionList														nonlure	3	Face	0-Back	69	80	68	0	0	100	3	39	267079	1	13	73	265040	-1	265574	1	534	3	3	2039	52	267092	-53	0																79												
WM080112	103111_fnca	2	1	1	-151089282	1	75.030	75.031	2.0.10.147	2.0.10.242	2.0.10.242	1.0.0.439	7	234	2	3	Verdana	1	80	0	0	0	WM Stimuli\	1	878.6	1	726.1	1	1068	1	552.6	1	893.4	1	671.4	0.9	743.555555555556	1	624.2	12	315912	3	315901	27	39	315939	-999999	315915	0	39	TrialsPROC	FC_021_M11.png	2	2	80	SessionSelectionList														lure	3	Face	0-Back	70	80	69	0	0	100	4	39	269651	1	14	72	267612	-1	268073	1	461	3	3	2039	53	269665	-54	0																80												
WM080112	103111_fnca	2	1	1	-151089282	1	75.030	75.031	2.0.10.147	2.0.10.242	2.0.10.242	1.0.0.439	7	234	2	3	Verdana	1	80	0	0	0	WM Stimuli\	1	878.6	1	726.1	1	1068	1	552.6	1	893.4	1	671.4	0.9	743.555555555556	1	624.2	12	315912	3	315901	27	39	315939	-999999	315915	0	39	TrialsPROC	FC_019_M10.png	2	2	81	SessionSelectionList														nonlure	3	Face	0-Back	71	80	70	0	0	100	5	39	272223	2	14	72	270184	-1	270766	1	582	3	3	2039	53	272237	-54	0																81												
WM080112	103111_fnca	2	1	1	-151089282	1	75.030	75.031	2.0.10.147	2.0.10.242	2.0.10.242	1.0.0.439	7	234	2	3	Verdana	1	80	0	0	0	WM Stimuli\	1	878.6	1	726.1	1	1068	1	552.6	1	893.4	1	671.4	0.9	743.555555555556	1	624.2	12	315912	3	315901	27	39	315939	-999999	315915	0	40	Cue0BackPROC	PL_021_SCENE_07.png	2	2	82	SessionSelectionList																																										19	272703	-20	0												82												
WM080112	103111_fnca	2	1	1	-151089282	1	75.030	75.031	2.0.10.147	2.0.10.242	2.0.10.242	1.0.0.439	7	234	2	3	Verdana	1	80	0	0	0	WM Stimuli\	1	878.6	1	726.1	1	1068	1	552.6	1	893.4	1	671.4	0.9	743.555555555556	1	624.2	12	315912	3	315901	27	39	315939	-999999	315915	0	41	TrialsPROC	PL_025_SCENE_18.png	2	2	83	SessionSelectionList														nonlure	3	Place	0-Back	72	80	71	0	0	100	6	39	277288	1	14	65	275249	-1	275925	1	676	3	3	2039	53	277302	-54	0																83												
WM080112	103111_fnca	2	1	1	-151089282	1	75.030	75.031	2.0.10.147	2.0.10.242	2.0.10.242	1.0.0.439	7	234	2	3	Verdana	1	80	0	0	0	WM Stimuli\	1	878.6	1	726.1	1	1068	1	552.6	1	893.4	1	671.4	0.9	743.555555555556	1	624.2	12	315912	3	315901	27	39	315939	-999999	315915	0	41	TrialsPROC	PL_026_SCENE_24.png	2	2	84	SessionSelectionList														nonlure	3	Place	0-Back	73	80	72	0	0	100	7	39	279860	2	14	72	277821	-1	278389	1	568	3	3	2039	53	279874	-54	0																84												
WM080112	103111_fnca	2	1	1	-151089282	1	75.030	75.031	2.0.10.147	2.0.10.242	2.0.10.242	1.0.0.439	7	234	2	3	Verdana	1	80	0	0	0	WM Stimuli\	1	878.6	1	726.1	1	1068	1	552.6	1	893.4	1	671.4	0.9	743.555555555556	1	624.2	12	315912	3	315901	27	39	315939	-999999	315915	0	41	TrialsPROC	PL_025_SCENE_18.png	2	2	85	SessionSelectionList														lure	3	Place	0-Back	74	80	73	0	0	100	8	40	282433	1	13	72	280393	-1	281042	1	649	3	3	2040	53	282446	-54	0																85												
WM080112	103111_fnca	2	1	1	-151089282	1	75.030	75.031	2.0.10.147	2.0.10.242	2.0.10.242	1.0.0.439	7	234	2	3	Verdana	1	80	0	0	0	WM Stimuli\	1	878.6	1	726.1	1	1068	1	552.6	1	893.4	1	671.4	0.9	743.555555555556	1	624.2	12	315912	3	315901	27	39	315939	-999999	315915	0	41	TrialsPROC	PL_022_SCENE_08.png	2	2	86	SessionSelectionList														nonlure	3	Place	0-Back	75	80	74	0	0	100	9	39	285005	1	14	73	282966	-1	283690	1	724	3	3	2039	53	285019	-54	0																86												
WM080112	103111_fnca	2	1	1	-151089282	1	75.030	75.031	2.0.10.147	2.0.10.242	2.0.10.242	1.0.0.439	7	234	2	3	Verdana	1	80	0	0	0	WM Stimuli\	1	878.6	1	726.1	1	1068	1	552.6	1	893.4	1	671.4	0.9	743.555555555556	1	624.2	12	315912	3	315901	27	39	315939	-999999	315915	0	41	TrialsPROC	PL_026_SCENE_24.png	2	2	87	SessionSelectionList														lure	3	Place	0-Back	76	80	75	0	0	100	10	39	287577	2	14	72	285538	-1	286257	1	719	3	3	2039	53	287591	-54	0																87												
WM080112	103111_fnca	2	1	1	-151089282	1	75.030	75.031	2.0.10.147	2.0.10.242	2.0.10.242	1.0.0.439	7	234	2	3	Verdana	1	80	0	0	0	WM Stimuli\	1	878.6	1	726.1	1	1068	1	552.6	1	893.4	1	671.4	0.9	743.555555555556	1	624.2	12	315912	3	315901	27	39	315939	-999999	315915	0	41	TrialsPROC	PL_021_SCENE_07.png	2	2	88	SessionSelectionList														target	2	Place	0-Back	77	80	76	0	0	100	1	39	290149	2	14	72	288110	-1	288609	1	499	2	2	2039	53	290163	-54	0																88												
WM080112	103111_fnca	2	1	1	-151089282	1	75.030	75.031	2.0.10.147	2.0.10.242	2.0.10.242	1.0.0.439	7	234	2	3	Verdana	1	80	0	0	0	WM Stimuli\	1	878.6	1	726.1	1	1068	1	552.6	1	893.4	1	671.4	0.9	743.555555555556	1	624.2	12	315912	3	315901	27	39	315939	-999999	315915	0	41	TrialsPROC	PL_021_SCENE_07.png	2	2	89	SessionSelectionList														target	2	Place	0-Back	78	80	77	0	0	100	2	39	292722	1	13	73	290683	-1	291296	1	613	2	2	2039	52	292735	-53	0																89												
WM080112	103111_fnca	2	1	1	-151089282	1	75.030	75.031	2.0.10.147	2.0.10.242	2.0.10.242	1.0.0.439	7	234	2	3	Verdana	1	80	0	0	0	WM Stimuli\	1	878.6	1	726.1	1	1068	1	552.6	1	893.4	1	671.4	0.9	743.555555555556	1	624.2	12	315912	3	315901	27	39	315939	-999999	315915	0	41	TrialsPROC	PL_023_SCENE_09.png	2	2	90	SessionSelectionList														nonlure	3	Place	0-Back	79	80	78	0	0	100	1	39	295294	1	14	72	293255	-1	293742	1	487	3	3	2039	53	295308	-54	0																90												
WM080112	103111_fnca	2	1	1	-151089282	1	75.030	75.031	2.0.10.147	2.0.10.242	2.0.10.242	1.0.0.439	7	234	2	3	Verdana	1	80	0	0	0	WM Stimuli\	1	878.6	1	726.1	1	1068	1	552.6	1	893.4	1	671.4	0.9	743.555555555556	1	624.2	12	315912	3	315901	27	39	315939	-999999	315915	0	41	TrialsPROC	PL_024_SCENE_10.png	2	2	91	SessionSelectionList														nonlure	3	Place	0-Back	80	80	79	0	0	100	2	39	297866	2	14	72	295827	-1	296807	1	980	3	3	2039	53	297880	-54	0																91												
WM080112	103111_fnca	2	1	1	-151089282	1	75.030	75.031	2.0.10.147	2.0.10.242	2.0.10.242	1.0.0.439	7	234	2	3	Verdana	1	80	0	0	0	WM Stimuli\	1	878.6	1	726.1	1	1068	1	552.6	1	893.4	1	671.4	0.9	743.555555555556	1	624.2	12	315912	3	315901	27	39	315939	-999999	315915	0	41	TrialsPROC	PL_022_SCENE_08.png	2	2	92	SessionSelectionList														lure	3	Place	0-Back	80	80	80	0	0	100	3	39	300439	1	13	73	298400	-1	299199	1	799	3	3	2039	52	300452	-53	0																92												
WM080112	103111_fnca	2	1	1	-151089282	1	75.030	75.031	2.0.10.147	2.0.10.242	2.0.10.242	1.0.0.439	7	234	2	3	Verdana	1	80	0	0	0	WM Stimuli\	1	878.6	1	726.1	1	1068	1	552.6	1	893.4	1	671.4	0.9	743.555555555556	1	624.2	12	315912	3	315901	27	39	315939	-999999	315915	0	42	Fix15secPROC	""	2	2	93	SessionSelectionList																																															5	300905	-6	0							93												
